timestamp,accel_x,accel_y,accel_z,gyro_x,gyro_y,gyro_z
2025-10-17T19:11:55.333739,-0.01,0.02,1.02,0.18,0.43,0.18
2025-10-17T19:11:55.334734,-0.01,0.02,1.02,0.18,0.43,0.18
2025-10-17T19:11:55.393656,-0.01,0.02,1.02,0.12,0.43,0.18
2025-10-17T19:11:55.394659,-0.01,0.02,1.02,0.12,0.43,0.18
2025-10-17T19:11:55.452538,-0.01,0.02,1.02,0.18,0.43,0.12
2025-10-17T19:11:55.454781,-0.01,0.02,1.02,0.18,0.43,0.12
2025-10-17T19:11:55.455780,-0.01,0.02,1.02,0.18,0.43,0.18
2025-10-17T19:11:55.512946,-0.01,0.02,1.02,0.18,0.43,0.18
2025-10-17T19:11:55.513957,-0.01,0.02,1.02,0.18,0.43,0.18
2025-10-17T19:11:55.572536,-0.01,0.02,1.02,0.18,0.43,0.18
2025-10-17T19:11:55.573970,-0.01,0.02,1.02,0.18,0.43,0.18
2025-10-17T19:11:55.574976,-0.01,0.02,1.02,0.18,0.43,0.18
2025-10-17T19:11:55.633554,-0.01,0.02,1.02,0.18,0.43,0.18
2025-10-17T19:11:55.634554,-0.01,0.02,1.02,0.18,0.43,0.18
2025-10-17T19:11:55.692804,-0.01,0.02,1.02,0.18,0.43,0.18
2025-10-17T19:11:55.694808,-0.01,0.02,1.02,0.24,0.49,0.18
2025-10-17T19:11:55.694808,-0.01,0.02,1.02,0.24,0.43,0.18
2025-10-17T19:11:55.813533,-0.01,0.02,1.02,0.18,0.43,0.18
2025-10-17T19:11:55.814538,-0.01,0.02,1.02,0.18,0.37,0.18
2025-10-17T19:11:55.815539,-0.01,0.02,1.02,0.24,0.43,0.18
2025-10-17T19:11:55.816537,-0.01,0.02,1.02,0.18,0.37,0.18
2025-10-17T19:11:55.817945,-0.01,0.02,1.02,0.18,0.43,0.18
2025-10-17T19:11:55.873448,-0.01,0.02,1.02,0.24,0.43,0.18
2025-10-17T19:11:55.874449,-0.01,0.02,1.02,0.24,0.43,0.18
2025-10-17T19:11:55.932936,-0.09,0.07,1.02,0.79,0.73,-0.24
2025-10-17T19:11:55.933946,0.07,-0.03,1.03,0.49,0.55,-0.06
2025-10-17T19:11:55.934942,-0.00,0.02,1.02,0.92,0.67,0.00
2025-10-17T19:11:55.993167,-0.06,0.11,1.02,-0.24,0.24,-2.56
2025-10-17T19:11:55.994167,-0.15,0.14,1.02,-0.12,0.31,1.71
2025-10-17T19:11:56.053507,0.06,-0.03,1.02,-0.24,-0.24,-25.82
2025-10-17T19:11:56.054508,0.04,0.12,1.02,0.06,0.00,-18.07
2025-10-17T19:11:56.055512,0.06,0.02,1.02,0.92,0.49,0.55
2025-10-17T19:11:56.112930,-0.01,0.01,1.03,0.37,0.49,0.85
2025-10-17T19:11:56.113935,0.04,0.12,1.02,-0.06,0.37,2.01
2025-10-17T19:11:56.172929,0.05,0.14,1.02,0.55,1.04,23.62
2025-10-17T19:11:56.173935,-0.01,-0.03,1.02,0.61,1.22,32.47
2025-10-17T19:11:56.232931,-0.17,-0.21,1.03,-0.98,-0.55,-27.89
2025-10-17T19:11:56.233935,-0.06,-0.05,1.01,-0.37,-0.61,-34.00
2025-10-17T19:11:56.234938,0.06,0.02,1.03,0.79,0.49,-6.90
2025-10-17T19:11:56.293578,0.01,0.02,1.02,-0.55,0.18,1.77
2025-10-17T19:11:56.294576,-0.01,0.02,1.02,0.43,0.49,0.00
2025-10-17T19:11:56.353003,0.01,-0.03,1.02,0.61,0.43,-5.37
2025-10-17T19:11:56.354004,-0.08,0.22,1.02,0.12,0.43,3.78
2025-10-17T19:11:56.355005,0.05,-0.10,1.08,18.01,0.61,2.50
2025-10-17T19:11:56.412925,0.06,-0.09,1.10,0.12,-12.39,-26.55
2025-10-17T19:11:56.413930,-0.04,0.08,1.12,-9.95,-25.39,-34.06
2025-10-17T19:11:56.473363,-0.03,0.04,1.26,-31.31,-42.66,-47.79
2025-10-17T19:11:56.474362,-0.20,0.19,1.36,8.42,-112.55,-43.09
2025-10-17T19:11:56.475360,0.31,0.25,1.13,-10.19,-104.37,38.21
2025-10-17T19:11:56.532923,0.40,-0.18,1.12,-28.87,-32.29,43.70
2025-10-17T19:11:56.534862,0.23,-0.17,1.33,-68.48,41.99,12.08
2025-10-17T19:11:56.592644,0.21,-0.18,1.27,-116.58,62.56,7.32
2025-10-17T19:11:56.594646,0.23,-0.01,1.00,-79.83,105.29,23.44
2025-10-17T19:11:56.595643,0.04,-0.09,1.09,-44.92,113.65,33.39
2025-10-17T19:11:56.653499,0.06,-0.14,1.15,-33.51,82.46,23.86
2025-10-17T19:11:56.654500,-0.00,-0.16,1.04,-25.94,79.71,19.35
2025-10-17T19:11:56.712708,-0.07,-0.17,1.00,-12.27,83.92,12.82
2025-10-17T19:11:56.714713,-0.11,-0.21,1.00,23.38,82.52,13.12
2025-10-17T19:11:56.715712,-0.20,-0.24,1.09,6.65,66.96,16.66
2025-10-17T19:11:56.773377,-0.20,-0.26,1.09,18.19,66.35,16.05
2025-10-17T19:11:56.774378,-0.21,-0.18,1.16,31.31,61.95,-1.59
2025-10-17T19:11:56.832825,-0.29,-0.21,1.13,52.73,61.10,-1.71
2025-10-17T19:11:56.834831,-0.34,-0.22,1.02,66.96,57.25,-0.49
2025-10-17T19:11:56.835827,-0.38,-0.18,1.07,49.80,17.70,14.59
2025-10-17T19:11:56.892912,-0.37,-0.16,1.04,54.87,17.15,23.68
2025-10-17T19:11:56.894759,-0.29,-0.02,0.98,55.18,30.46,19.17
2025-10-17T19:11:56.952911,-0.32,-0.01,0.93,49.56,53.04,18.31
2025-10-17T19:11:56.953920,-0.37,0.05,0.88,45.96,62.81,20.14
2025-10-17T19:11:57.012909,-0.40,0.00,0.89,38.57,56.76,19.29
2025-10-17T19:11:57.013916,-0.44,0.12,0.82,46.81,2.14,-9.52
2025-10-17T19:11:57.014914,-0.37,0.09,0.67,31.37,53.47,-3.60
2025-10-17T19:11:57.072766,-0.48,0.10,0.81,32.71,31.07,8.42
2025-10-17T19:11:57.074772,-0.46,0.15,0.76,29.54,30.03,11.41
2025-10-17T19:11:57.133261,-0.46,0.18,0.74,28.56,31.86,9.28
2025-10-17T19:11:57.134256,-0.47,0.22,0.75,23.19,13.00,3.42
2025-10-17T19:11:57.135257,-0.48,0.22,0.76,29.24,-1.28,6.47
2025-10-17T19:11:57.193007,-0.53,0.17,0.80,37.29,1.71,9.58
2025-10-17T19:11:57.194009,-0.51,0.21,0.79,44.62,2.32,14.28
2025-10-17T19:11:57.253495,-0.44,0.22,0.77,38.76,-2.20,7.69
2025-10-17T19:11:57.254494,-0.44,0.29,0.81,42.91,-29.54,1.53
2025-10-17T19:11:57.255497,-0.47,0.26,0.85,62.93,-35.64,-2.99
2025-10-17T19:11:57.312670,-0.45,0.34,0.84,64.58,-15.08,-3.85
2025-10-17T19:11:57.314672,-0.41,0.29,0.67,51.82,20.32,5.00
2025-10-17T19:11:57.373526,-0.23,0.12,0.49,18.92,31.25,3.54
2025-10-17T19:11:57.374526,-0.44,0.29,0.36,-4.09,26.18,8.91
2025-10-17T19:11:57.375530,-0.27,0.24,0.31,-23.19,-2.26,-1.28
2025-10-17T19:11:57.432899,-0.31,0.20,0.54,-21.06,-29.05,-18.07
2025-10-17T19:11:57.433906,-0.39,0.18,0.50,-7.81,3.78,5.31
2025-10-17T19:11:57.553488,-0.26,0.14,0.39,-10.25,-4.70,-3.30
2025-10-17T19:11:57.554486,-0.37,0.21,0.55,4.70,-68.97,3.60
2025-10-17T19:11:57.555486,-0.31,0.23,0.65,5.31,-75.01,1.34
2025-10-17T19:11:57.612474,-0.34,0.26,0.78,-14.40,-63.23,-10.74
2025-10-17T19:11:57.613942,-0.36,0.23,0.87,-22.22,-55.05,-10.86
2025-10-17T19:11:57.614941,-0.34,0.20,0.90,-39.25,-40.71,-6.77
2025-10-17T19:11:57.616449,-0.32,0.19,0.92,-35.22,-41.69,-3.85
2025-10-17T19:11:57.617456,-0.31,0.21,1.00,-20.26,-54.44,0.24
2025-10-17T19:11:57.672859,-0.29,0.20,1.08,-3.78,-51.76,0.18
2025-10-17T19:11:57.673861,-0.27,0.20,1.07,-18.98,-32.78,-2.87
2025-10-17T19:11:57.732891,-0.25,0.17,1.04,-29.79,-26.43,-3.72
2025-10-17T19:11:57.734896,-0.25,0.16,1.08,-13.49,-33.57,1.53
2025-10-17T19:11:57.793019,-0.22,0.18,1.12,-6.41,-30.27,3.48
2025-10-17T19:11:57.794019,-0.22,0.17,1.06,-12.27,-9.46,-1.77
2025-10-17T19:11:57.795019,-0.23,0.17,1.05,-12.76,-8.79,-0.49
2025-10-17T19:11:57.853481,-0.21,0.18,1.05,-16.05,-19.04,-2.08
2025-10-17T19:11:57.854480,-0.21,0.17,1.04,-18.31,-11.84,-1.77
2025-10-17T19:11:57.912885,-0.23,0.13,0.96,-8.00,-12.02,4.33
2025-10-17T19:11:57.913893,-0.23,0.14,1.03,-6.10,-26.18,12.02
2025-10-17T19:11:57.914894,-0.20,0.18,1.08,-9.40,-30.82,10.25
2025-10-17T19:11:57.972883,-0.18,0.12,1.00,-19.35,-5.74,1.16
2025-10-17T19:11:57.973889,-0.18,0.09,0.97,-16.72,-4.76,5.37
2025-10-17T19:11:58.032469,-0.16,0.13,0.97,-14.28,-22.64,8.00
2025-10-17T19:11:58.034679,-0.16,0.13,1.01,-9.09,-18.80,7.32
2025-10-17T19:11:58.035678,-0.14,0.13,1.00,-3.11,-17.82,7.69
2025-10-17T19:11:58.092880,-0.09,0.11,1.00,-4.33,-20.57,7.51
2025-10-17T19:11:58.095009,-0.10,0.12,1.05,-13.85,-24.23,4.39
2025-10-17T19:11:58.152879,-0.11,0.13,1.03,-18.01,-10.25,1.28
2025-10-17T19:11:58.153886,-0.11,0.12,0.99,-14.34,-3.42,2.32
2025-10-17T19:11:58.154886,-0.09,0.13,0.99,-17.76,-19.65,9.83
2025-10-17T19:11:58.213702,-0.09,0.08,1.07,-10.56,-32.35,6.29
2025-10-17T19:11:58.214704,-0.09,0.08,1.07,-10.19,-29.66,5.92
2025-10-17T19:11:58.272876,-0.05,0.06,1.07,-13.98,-15.99,4.58
2025-10-17T19:11:58.273883,-0.06,0.08,1.12,-7.93,-12.45,4.58
2025-10-17T19:11:58.274882,-0.02,0.11,1.12,-5.74,-4.94,9.46
2025-10-17T19:11:58.332871,-0.01,0.08,1.07,2.93,5.37,0.43
2025-10-17T19:11:58.333877,-0.06,0.06,1.06,6.10,0.61,2.69
2025-10-17T19:11:58.392872,-0.06,0.06,1.07,14.47,-14.47,5.43
2025-10-17T19:11:58.393877,-0.03,0.06,1.12,7.75,-8.91,-1.59
2025-10-17T19:11:58.452869,-0.02,0.18,1.21,3.97,-9.34,6.65
2025-10-17T19:11:58.453875,0.02,0.15,1.09,3.72,5.00,3.05
2025-10-17T19:11:58.454873,-0.01,0.14,0.99,4.82,24.23,-2.14
2025-10-17T19:11:58.513108,-0.05,0.14,1.05,6.65,-8.79,0.12
2025-10-17T19:11:58.514113,-0.07,0.14,1.10,6.59,-31.19,-0.55
2025-10-17T19:11:58.573473,0.01,0.16,1.12,2.87,-15.99,-5.68
2025-10-17T19:11:58.574475,-0.02,0.16,1.19,-1.53,-6.10,-4.64
2025-10-17T19:11:58.575473,0.00,0.13,1.20,-2.99,-9.46,-2.99
2025-10-17T19:11:58.633472,0.01,0.14,1.21,4.46,-9.77,-2.26
2025-10-17T19:11:58.634472,0.05,0.13,1.18,7.81,5.74,-6.77
2025-10-17T19:11:58.693457,0.02,0.14,1.17,11.23,11.66,-9.34
2025-10-17T19:11:58.694455,0.04,0.13,1.09,8.00,21.18,-11.35
2025-10-17T19:11:58.695460,0.04,0.13,1.03,-5.55,22.28,-14.95
2025-10-17T19:11:58.752862,0.00,0.09,1.01,-4.03,30.76,-17.70
2025-10-17T19:11:58.753868,-0.03,0.09,0.98,3.85,32.53,-14.04
2025-10-17T19:11:58.813610,-0.03,0.10,0.91,-5.74,25.39,-18.01
2025-10-17T19:11:58.814607,-0.03,0.07,0.86,-12.08,25.57,-21.91
2025-10-17T19:11:58.815608,-0.05,0.03,0.79,-13.55,22.22,-22.71
2025-10-17T19:11:58.873981,-0.09,-0.02,0.70,-3.97,25.82,-18.43
2025-10-17T19:11:58.873981,-0.13,-0.07,0.53,-1.71,14.40,-6.71
2025-10-17T19:11:58.933449,-0.21,-0.10,0.59,-6.71,-10.93,2.44
2025-10-17T19:11:58.934450,-0.25,0.02,0.83,-14.65,-51.09,16.36
2025-10-17T19:11:58.935449,-0.08,0.02,0.84,-20.20,11.29,15.44
2025-10-17T19:11:58.993469,-0.07,0.15,0.87,-1.40,13.18,25.39
2025-10-17T19:11:58.994468,-0.13,0.05,1.20,-5.80,-7.02,6.23
2025-10-17T19:11:59.053434,-0.19,0.10,1.21,-5.25,-61.46,14.95
2025-10-17T19:11:59.054439,0.02,0.06,1.09,6.47,-39.06,23.44
2025-10-17T19:11:59.055439,-0.02,0.06,1.18,10.44,-28.14,10.93
2025-10-17T19:11:59.113765,-0.02,0.12,1.24,-1.83,-38.27,-2.38
2025-10-17T19:11:59.113765,-0.04,0.18,1.17,-23.99,41.14,-21.42
2025-10-17T19:11:59.173432,-0.03,0.12,1.07,-11.05,38.76,-19.04
2025-10-17T19:11:59.174436,-0.11,-0.01,1.01,24.66,1.40,-8.18
2025-10-17T19:11:59.292429,-0.08,-0.04,0.99,23.44,-36.25,-5.74
2025-10-17T19:11:59.293436,0.04,0.11,1.03,-8.36,-50.17,-20.75
2025-10-17T19:11:59.294439,0.01,0.05,1.04,-1.59,7.87,1.83
2025-10-17T19:11:59.296434,-0.02,0.05,1.08,-3.48,7.39,1.59
2025-10-17T19:11:59.297651,0.01,0.08,1.02,-2.08,2.20,2.93
2025-10-17T19:11:59.298661,-0.01,0.07,1.02,6.10,5.07,4.70
2025-10-17T19:11:59.352846,-0.04,0.02,1.08,17.15,-6.71,8.67
2025-10-17T19:11:59.353851,-0.01,0.05,1.07,8.91,-0.24,7.26
2025-10-17T19:11:59.412844,-0.00,0.04,1.04,-8.00,19.17,3.60
2025-10-17T19:11:59.413850,-0.03,0.08,0.99,4.52,16.91,10.62
2025-10-17T19:11:59.473120,-0.02,0.03,0.98,15.44,10.99,16.60
2025-10-17T19:11:59.474121,-0.01,-0.02,1.01,13.18,-3.17,18.13
2025-10-17T19:11:59.475122,-0.03,0.01,1.02,6.16,-2.87,16.42
2025-10-17T19:11:59.592419,-0.04,0.06,0.99,3.36,8.00,15.08
2025-10-17T19:11:59.593423,-0.05,0.10,1.01,-2.08,10.25,22.09
2025-10-17T19:11:59.594427,-0.03,0.09,0.99,-8.61,9.34,20.39
2025-10-17T19:11:59.596424,-0.04,0.15,1.03,-13.92,-1.77,14.89
2025-10-17T19:11:59.597936,-0.06,0.15,1.07,-6.71,-16.11,15.08
2025-10-17T19:11:59.652837,0.05,0.21,1.15,-35.46,6.84,1.71
2025-10-17T19:11:59.653847,-0.08,0.05,1.12,5.25,12.51,2.75
2025-10-17T19:11:59.713417,-0.03,0.07,1.02,-11.29,-4.52,-0.61
2025-10-17T19:11:59.714421,-0.02,0.08,1.02,-18.86,-8.48,-0.37
2025-10-17T19:11:59.773427,-0.04,0.06,1.02,-23.07,-8.18,-6.84
2025-10-17T19:11:59.774427,-0.07,0.00,1.02,-5.00,1.40,-17.58
2025-10-17T19:11:59.775427,-0.03,-0.00,1.02,6.23,8.00,-25.88
2025-10-17T19:11:59.833413,-0.05,-0.00,1.02,8.12,6.35,-24.17
2025-10-17T19:11:59.834418,-0.04,0.01,1.05,12.08,3.54,-19.71
2025-10-17T19:11:59.835418,-0.04,0.09,1.06,33.26,20.51,-8.97
2025-10-17T19:11:59.893388,-0.05,0.01,0.98,37.05,33.51,-0.12
2025-10-17T19:11:59.894391,-0.08,0.01,1.03,38.82,18.68,-1.89
2025-10-17T19:11:59.952731,-0.08,0.11,1.04,38.15,4.27,0.24
2025-10-17T19:11:59.954731,-0.07,0.14,1.01,27.16,20.45,-5.92
2025-10-17T19:11:59.955731,-0.09,0.16,0.98,14.16,26.25,-4.94
2025-10-17T19:12:00.013223,-0.08,0.12,0.99,8.85,18.62,-14.34
2025-10-17T19:12:00.014222,-0.07,0.24,1.02,12.08,16.11,-11.90
2025-10-17T19:12:00.073572,-0.07,0.19,0.96,30.33,26.61,-10.93
2025-10-17T19:12:00.074576,-0.11,0.15,0.95,35.22,25.15,-5.98
2025-10-17T19:12:00.133646,-0.12,0.14,0.94,25.15,19.35,1.65
2025-10-17T19:12:00.134649,-0.10,0.16,0.90,9.58,23.44,-15.32
2025-10-17T19:12:00.135646,-0.11,0.15,0.88,-3.36,28.87,-4.76
2025-10-17T19:12:00.193731,-0.16,0.33,1.23,-44.37,-5.31,2.08
2025-10-17T19:12:00.194729,-0.06,0.25,1.19,-12.08,-7.45,-3.54
2025-10-17T19:12:00.253674,-0.14,0.35,1.14,23.86,19.59,-21.91
2025-10-17T19:12:00.254675,-0.12,0.08,0.87,21.18,34.00,-24.41
2025-10-17T19:12:00.255674,-0.25,-0.07,0.74,24.48,17.15,-25.33
2025-10-17T19:12:00.313213,-0.35,0.04,1.03,-24.96,-47.49,0.12
2025-10-17T19:12:00.314213,-0.09,0.23,1.05,-56.64,-51.76,9.22
2025-10-17T19:12:00.373728,-0.13,0.25,1.00,-30.33,-8.42,3.42
2025-10-17T19:12:00.374724,-0.13,0.17,0.97,3.30,-2.50,13.55
2025-10-17T19:12:00.375726,-0.26,0.28,1.01,-11.66,-19.29,20.63
2025-10-17T19:12:00.433601,-0.12,0.18,1.03,-41.14,-21.18,4.64
2025-10-17T19:12:00.434600,-0.15,0.11,1.04,-9.83,0.49,6.10
2025-10-17T19:12:00.494209,-0.12,0.16,0.99,-5.13,-8.12,16.11
2025-10-17T19:12:00.494209,-0.10,0.26,1.03,-7.57,-18.92,21.61
2025-10-17T19:12:00.495210,-0.05,0.29,1.14,5.07,-26.18,28.63
2025-10-17T19:12:00.553213,-0.07,0.36,1.33,-21.91,-23.56,18.86
2025-10-17T19:12:00.554213,0.01,0.39,1.50,1.65,-21.85,2.62
2025-10-17T19:12:00.613719,0.00,0.30,1.48,1.22,-26.25,-24.90
2025-10-17T19:12:00.614715,-0.06,0.14,1.47,-2.87,-13.31,-25.15
2025-10-17T19:12:00.615720,-0.04,0.16,1.34,-7.69,36.99,-20.20
2025-10-17T19:12:00.673780,-0.04,0.21,1.34,4.76,37.90,-13.92
2025-10-17T19:12:00.673780,-0.08,0.06,1.13,27.22,0.00,-24.96
2025-10-17T19:12:00.733715,-0.14,0.05,1.32,49.44,19.53,1.34
2025-10-17T19:12:00.734715,-0.02,0.15,1.16,22.58,39.73,-8.85
2025-10-17T19:12:00.793858,-0.05,0.17,1.02,27.71,45.47,-17.03
2025-10-17T19:12:00.793858,-0.16,0.13,0.92,82.64,23.99,-18.25
2025-10-17T19:12:00.794858,-0.24,0.07,0.97,81.97,-10.74,-9.03
2025-10-17T19:12:00.853185,-0.23,0.12,1.02,53.77,8.61,-0.37
2025-10-17T19:12:00.854184,-0.16,0.23,0.97,-5.62,47.24,-5.74
2025-10-17T19:12:00.913303,-0.18,0.24,0.99,-14.16,41.14,-12.39
2025-10-17T19:12:00.914307,-0.20,0.23,1.02,7.20,34.24,-10.38
2025-10-17T19:12:00.915305,-0.20,0.19,1.04,31.43,37.78,-12.39
2025-10-17T19:12:00.973670,-0.22,0.20,0.97,34.12,45.78,-13.06
2025-10-17T19:12:00.974674,-0.24,0.24,0.85,22.09,40.83,-8.18
2025-10-17T19:12:01.033603,-0.25,0.22,0.79,4.88,30.33,-7.08
2025-10-17T19:12:01.034600,-0.28,0.22,0.88,-3.36,23.86,-3.30
2025-10-17T19:12:01.035600,-0.23,0.24,0.82,-1.59,37.41,-5.49
2025-10-17T19:12:01.093435,-0.24,0.25,0.73,18.68,28.38,-9.70
2025-10-17T19:12:01.094436,-0.26,0.25,0.61,32.90,4.52,-8.79
2025-10-17T19:12:01.153378,-0.24,0.26,0.63,34.61,-9.22,-10.19
2025-10-17T19:12:01.154384,-0.26,0.29,0.72,24.05,-13.61,-12.15
2025-10-17T19:12:01.155383,-0.27,0.27,0.70,4.70,4.82,-10.86
2025-10-17T19:12:01.213421,-0.21,0.24,0.62,2.50,1.10,-16.72
2025-10-17T19:12:01.214421,-0.26,0.19,0.60,12.82,-15.56,-14.53
2025-10-17T19:12:01.273407,-0.27,0.29,0.76,23.62,-32.17,-6.10
2025-10-17T19:12:01.274407,-0.21,0.21,0.66,-2.93,2.26,0.49
2025-10-17T19:12:01.275409,-0.23,0.22,0.62,-30.76,18.74,-5.19
2025-10-17T19:12:01.333908,-0.23,0.33,0.58,-28.81,8.73,-2.01
2025-10-17T19:12:01.333908,-0.21,0.26,0.51,-53.77,6.04,-9.52
2025-10-17T19:12:01.393807,-0.28,0.25,0.50,-26.86,-0.67,-11.84
2025-10-17T19:12:01.393807,-0.25,0.28,0.48,0.37,-22.95,-7.26
2025-10-17T19:12:01.394803,-0.18,0.25,0.55,8.12,-37.66,-3.17
2025-10-17T19:12:01.453566,-0.27,0.23,0.63,54.93,-14.77,-2.81
2025-10-17T19:12:01.454567,-0.26,0.29,0.74,4.03,-12.02,-2.44
2025-10-17T19:12:01.513369,-0.16,0.30,0.62,-27.47,-1.95,-2.14
2025-10-17T19:12:01.514373,-0.20,0.19,0.50,-4.27,6.77,-5.74
2025-10-17T19:12:01.573048,-0.23,0.19,0.75,2.38,-8.79,-1.83
2025-10-17T19:12:01.574048,-0.26,0.31,1.00,-13.00,-45.29,11.60
2025-10-17T19:12:01.575048,-0.11,0.35,0.90,-34.48,-10.19,-1.04
2025-10-17T19:12:01.633366,-0.16,0.27,0.90,-21.61,9.22,-6.96
2025-10-17T19:12:01.634370,-0.30,0.10,1.04,-45.90,-17.33,-12.08
2025-10-17T19:12:01.753363,-0.27,0.09,1.00,-67.20,-30.88,-9.77
2025-10-17T19:12:01.754368,-0.22,0.27,1.08,-66.22,-37.29,-5.55
2025-10-17T19:12:01.755368,-0.19,0.23,1.16,-73.30,-45.84,-11.47
2025-10-17T19:12:01.756372,-0.20,0.09,1.07,-51.64,-25.51,-16.17
2025-10-17T19:12:01.758792,-0.20,0.01,1.08,-26.55,-26.31,-2.14
2025-10-17T19:12:01.813431,-0.24,0.01,1.17,-32.41,-39.12,3.42
2025-10-17T19:12:01.814434,-0.12,0.13,1.17,-41.87,-27.22,1.22
2025-10-17T19:12:01.815434,-0.11,0.09,1.13,-19.59,-7.02,-3.97
2025-10-17T19:12:01.873314,-0.19,-0.01,1.16,2.62,-26.06,7.57
2025-10-17T19:12:01.874315,-0.19,-0.02,1.20,-3.23,-28.08,11.05
2025-10-17T19:12:01.933357,-0.11,0.07,1.17,-5.00,-11.66,11.96
2025-10-17T19:12:01.934382,-0.10,0.13,1.20,4.15,-7.02,6.90
2025-10-17T19:12:01.935382,-0.12,0.10,1.19,-3.78,-16.66,1.22
2025-10-17T19:12:01.993356,-0.12,0.02,1.13,-10.31,-24.96,3.72
2025-10-17T19:12:01.994592,-0.11,0.08,1.21,-6.23,-37.35,6.47
2025-10-17T19:12:02.053247,-0.09,0.08,1.21,-6.04,-16.54,0.12
2025-10-17T19:12:02.054249,-0.05,0.07,1.09,9.89,-20.45,5.43
2025-10-17T19:12:02.055250,-0.05,0.09,1.13,5.00,-13.18,2.01
2025-10-17T19:12:02.113351,-0.07,0.08,1.17,-6.29,-7.32,3.36
2025-10-17T19:12:02.114358,-0.04,0.14,1.17,-1.77,0.00,2.32
2025-10-17T19:12:02.173479,-0.02,0.12,1.11,8.54,7.87,-2.50
2025-10-17T19:12:02.174477,-0.04,0.05,1.06,10.31,4.46,-0.37
2025-10-17T19:12:02.175481,-0.03,0.06,1.04,-10.01,-8.24,-5.13
2025-10-17T19:12:02.233572,-0.06,0.04,1.05,-18.25,-1.77,-7.87
2025-10-17T19:12:02.234571,-0.04,0.05,1.08,-7.75,-0.67,-5.13
2025-10-17T19:12:02.293349,-0.00,0.03,1.09,-43.40,-17.15,-0.49
2025-10-17T19:12:02.294467,0.05,0.03,1.06,-30.03,-6.59,0.31
2025-10-17T19:12:02.353444,0.00,0.01,1.06,-7.57,10.68,-7.57
2025-10-17T19:12:02.413343,-0.02,0.01,1.04,-1.10,9.34,-1.71
2025-10-17T19:12:02.414347,-0.02,0.02,1.06,3.85,3.91,0.61
2025-10-17T19:12:02.415347,0.00,0.05,1.07,7.39,2.14,-2.56
2025-10-17T19:12:02.416349,0.01,0.09,1.13,0.67,-3.72,-1.83
2025-10-17T19:12:02.473646,0.01,0.01,1.18,-10.86,-15.87,-5.68
2025-10-17T19:12:02.474643,0.03,0.03,1.19,-23.93,-16.11,-4.15
2025-10-17T19:12:02.475644,0.04,0.05,1.23,-24.54,-13.12,-3.85
2025-10-17T19:12:02.533421,0.04,0.07,1.25,-4.33,-17.70,-4.76
2025-10-17T19:12:02.534425,0.02,0.04,1.27,10.38,-23.07,-2.32
2025-10-17T19:12:02.593340,0.06,0.03,1.27,-1.28,-19.29,-0.98
2025-10-17T19:12:02.594347,0.04,-0.02,1.24,-16.66,-7.20,-9.22
2025-10-17T19:12:02.595344,0.04,-0.01,1.20,-17.21,5.92,-13.67
2025-10-17T19:12:02.653548,0.03,-0.03,1.17,-9.22,7.26,-15.14
2025-10-17T19:12:02.654544,-0.02,-0.03,1.27,25.21,-0.98,-8.18
2025-10-17T19:12:02.713377,0.08,-0.08,1.15,27.04,20.32,-5.55
2025-10-17T19:12:02.714379,-0.02,-0.08,1.14,18.01,33.81,-7.26
2025-10-17T19:12:02.773335,-0.04,-0.11,1.09,16.05,27.40,-2.62
2025-10-17T19:12:02.774340,-0.03,-0.10,1.08,18.13,27.65,-4.46
2025-10-17T19:12:02.775340,-0.05,-0.06,1.06,17.27,24.35,2.69
2025-10-17T19:12:02.833333,-0.06,-0.03,1.07,13.67,23.44,2.26
2025-10-17T19:12:02.834422,-0.08,-0.04,1.06,22.95,34.36,3.60
2025-10-17T19:12:02.835432,-0.08,-0.01,1.02,23.56,38.51,6.23
2025-10-17T19:12:02.893331,-0.11,0.01,0.98,25.45,40.77,3.85
2025-10-17T19:12:02.894343,-0.13,0.03,0.99,25.09,33.14,3.85
2025-10-17T19:12:02.953474,-0.14,0.06,1.01,21.42,33.39,3.36
2025-10-17T19:12:02.954478,-0.15,0.06,0.98,25.33,35.52,7.51
2025-10-17T19:12:02.955475,-0.15,0.09,0.96,28.69,26.92,5.92
2025-10-17T19:12:03.013449,-0.17,0.09,0.96,30.03,23.80,1.65
2025-10-17T19:12:03.014450,-0.19,0.12,0.92,25.21,25.70,-2.26
2025-10-17T19:12:03.073327,-0.21,0.09,0.91,29.54,32.71,-3.30
2025-10-17T19:12:03.074332,-0.18,0.09,0.89,18.25,28.38,5.13
2025-10-17T19:12:03.133325,-0.20,0.11,0.92,9.16,28.87,-0.18
2025-10-17T19:12:03.134333,-0.19,0.16,0.89,9.16,33.14,-4.58
2025-10-17T19:12:03.135330,-0.21,0.15,0.86,32.71,26.49,-9.34
2025-10-17T19:12:03.193799,-0.21,0.16,0.83,38.09,17.03,-2.87
2025-10-17T19:12:03.193799,-0.24,0.16,0.86,30.21,15.69,1.40
2025-10-17T19:12:03.253469,-0.23,0.16,0.86,13.00,23.01,1.77
2025-10-17T19:12:03.254469,-0.25,0.14,0.78,4.27,28.14,-7.45
2025-10-17T19:12:03.255469,-0.22,0.24,0.83,34.61,10.74,-4.76
2025-10-17T19:12:03.313319,-0.19,0.30,0.82,25.39,6.10,2.20
2025-10-17T19:12:03.314375,-0.26,0.26,0.73,10.25,17.40,0.55
2025-10-17T19:12:03.373509,-0.26,0.26,0.69,-0.06,14.83,0.61
2025-10-17T19:12:03.374510,-0.25,0.29,0.70,-16.91,-3.23,-2.93
2025-10-17T19:12:03.375510,-0.29,0.26,0.79,-22.22,-9.03,-5.92
2025-10-17T19:12:03.433595,-0.25,0.27,0.77,-6.10,7.87,4.21
2025-10-17T19:12:03.434597,-0.22,0.24,0.69,-4.70,4.82,-2.32
2025-10-17T19:12:03.493316,-0.25,0.23,0.67,-2.38,-9.64,-4.58
2025-10-17T19:12:03.494321,-0.26,0.22,0.68,-8.61,-11.29,-4.15
2025-10-17T19:12:03.495320,-0.24,0.21,0.66,-14.47,-8.79,1.04
2025-10-17T19:12:03.553915,-0.23,0.22,0.65,-22.09,-12.08,2.56
2025-10-17T19:12:03.553915,-0.24,0.22,0.68,-24.78,-21.06,-2.01
2025-10-17T19:12:03.613830,-0.25,0.20,0.71,-21.42,-19.71,-4.39
2025-10-17T19:12:03.613830,-0.23,0.21,0.71,-20.81,-17.40,-0.61
2025-10-17T19:12:03.614832,-0.23,0.20,0.73,-19.59,-25.88,-0.37
2025-10-17T19:12:03.673282,-0.23,0.16,0.79,-20.20,-36.01,0.06
2025-10-17T19:12:03.674285,-0.21,0.16,0.86,-36.19,-31.31,-2.99
2025-10-17T19:12:03.733345,-0.19,0.16,0.89,-44.86,-21.85,-6.59
2025-10-17T19:12:03.733345,-0.20,0.12,0.90,-25.70,-35.03,-8.24
2025-10-17T19:12:03.793309,-0.19,0.08,0.96,-18.62,-49.87,-7.14
2025-10-17T19:12:03.794314,-0.14,0.05,1.04,-33.33,-42.36,-2.26
2025-10-17T19:12:03.795314,-0.12,0.04,1.02,-47.06,-22.89,-5.74
2025-10-17T19:12:03.853308,-0.13,-0.01,1.02,-40.22,-28.99,-6.65
2025-10-17T19:12:03.854312,-0.11,-0.00,1.09,-28.14,-44.68,-9.40
2025-10-17T19:12:03.913306,-0.10,-0.04,1.10,-25.63,-32.96,-8.91
2025-10-17T19:12:03.914311,-0.08,-0.08,1.13,-22.58,-22.71,-3.97
2025-10-17T19:12:03.915311,-0.06,-0.06,1.14,-27.10,-24.60,-3.30
2025-10-17T19:12:03.973043,-0.06,-0.06,1.14,-15.38,-22.40,-1.53
2025-10-17T19:12:03.974049,-0.04,-0.04,1.15,3.48,-23.01,0.49
2025-10-17T19:12:04.033302,-0.04,-0.02,1.18,6.77,-20.02,-2.50
2025-10-17T19:12:04.034307,-0.05,-0.03,1.12,-3.60,-2.81,-0.98
2025-10-17T19:12:04.035306,-0.08,-0.01,1.16,-1.83,-0.43,3.54
2025-10-17T19:12:04.093299,-0.07,0.03,1.24,4.15,-9.95,-1.71
2025-10-17T19:12:04.094311,-0.02,-0.00,1.21,11.90,-9.64,-7.87
2025-10-17T19:12:04.153310,-0.01,-0.05,1.31,23.13,-13.61,-9.40
2025-10-17T19:12:04.154311,0.01,-0.12,1.30,7.39,-9.28,-3.54
2025-10-17T19:12:04.155310,0.07,-0.17,1.24,-3.54,2.26,-10.31
2025-10-17T19:12:04.213562,0.05,-0.22,1.23,12.15,2.38,-0.67
2025-10-17T19:12:04.214564,0.05,-0.22,1.25,19.35,-1.65,2.75
2025-10-17T19:12:04.273293,0.04,-0.19,1.20,21.24,7.08,9.40
2025-10-17T19:12:04.274298,0.04,-0.23,1.11,18.86,20.32,14.47
2025-10-17T19:12:04.275297,0.03,-0.27,1.03,-5.92,17.21,7.20
2025-10-17T19:12:04.332904,-0.05,-0.19,1.06,-4.46,4.70,23.19
2025-10-17T19:12:04.333910,-0.00,-0.17,1.04,8.06,14.10,34.06
2025-10-17T19:12:04.393291,0.01,-0.10,1.02,15.08,11.23,32.53
2025-10-17T19:12:04.394296,0.01,-0.08,1.01,15.93,2.69,27.40
2025-10-17T19:12:04.395296,-0.05,-0.04,1.02,3.97,7.20,25.21
2025-10-17T19:12:04.453227,-0.05,-0.01,0.97,11.41,22.40,36.87
2025-10-17T19:12:04.454228,0.00,0.05,0.91,14.65,13.06,31.13
2025-10-17T19:12:04.513712,-0.04,0.08,0.96,13.98,-5.55,21.67
2025-10-17T19:12:04.514714,-0.06,0.07,0.98,2.44,6.16,11.66
2025-10-17T19:12:04.573019,-0.08,0.09,0.96,-13.18,16.48,18.49
2025-10-17T19:12:04.574019,-0.10,0.14,0.95,-16.54,8.42,20.81
2025-10-17T19:12:04.575020,-0.10,0.18,0.96,1.95,-10.07,18.43
2025-10-17T19:12:04.633394,-0.10,0.08,0.96,8.48,-2.69,25.09
2025-10-17T19:12:04.634397,-0.10,0.09,0.95,-3.05,-1.22,26.18
2025-10-17T19:12:04.693284,-0.11,0.12,1.00,2.44,-10.86,29.42
2025-10-17T19:12:04.694288,-0.08,0.14,1.03,-0.43,-7.63,29.72
2025-10-17T19:12:04.695288,-0.11,0.09,0.99,-2.93,0.61,30.88
2025-10-17T19:12:04.753281,-0.07,0.12,0.94,8.30,-0.37,33.57
2025-10-17T19:12:04.754287,-0.00,0.07,0.98,9.46,-15.38,31.07
2025-10-17T19:12:04.813034,-0.01,0.08,1.08,-3.36,-9.16,30.21
2025-10-17T19:12:04.814035,-0.02,0.08,1.03,-12.76,8.00,31.19
2025-10-17T19:12:04.815037,0.06,0.04,0.99,6.53,1.46,40.04
2025-10-17T19:12:04.873255,0.04,0.05,1.04,3.48,-16.11,37.54
2025-10-17T19:12:04.874256,-0.03,0.13,1.14,-1.89,-8.73,43.70
2025-10-17T19:12:04.933622,-0.04,0.27,0.99,-11.78,22.40,45.53
2025-10-17T19:12:04.934620,-0.04,0.36,0.92,-2.26,12.02,44.86
2025-10-17T19:12:04.935623,-0.06,0.37,0.98,-5.13,-13.18,39.92
2025-10-17T19:12:04.993276,-0.06,0.42,1.01,-11.96,-2.38,41.50
2025-10-17T19:12:04.994281,-0.03,0.59,1.00,-13.31,5.68,25.02
2025-10-17T19:12:05.053273,-0.02,0.66,1.00,-0.92,-6.90,7.08
2025-10-17T19:12:05.054278,0.00,0.69,1.02,1.46,-7.57,-8.12
2025-10-17T19:12:05.055278,0.01,0.58,1.01,5.62,0.12,-27.47
2025-10-17T19:12:05.113271,0.00,0.50,0.98,7.08,4.21,-37.35
2025-10-17T19:12:05.114276,-0.02,0.36,0.97,23.50,-1.16,-36.74
2025-10-17T19:12:05.233894,0.01,0.33,0.96,5.74,-2.93,-42.97
2025-10-17T19:12:05.233894,-0.05,0.25,1.00,-1.40,-6.10,-41.81
2025-10-17T19:12:05.234896,-0.07,0.20,1.04,46.08,-11.05,-24.78
2025-10-17T19:12:05.236400,0.13,0.29,0.94,26.61,4.39,-37.23
2025-10-17T19:12:05.238407,-0.06,0.15,1.06,29.24,21.42,-50.29
2025-10-17T19:12:05.293268,-0.10,0.05,1.01,56.52,0.12,-48.52
2025-10-17T19:12:05.294280,-0.13,0.01,0.96,25.09,-5.37,-13.43
2025-10-17T19:12:05.353266,0.06,0.19,0.90,-25.63,8.24,-17.70
2025-10-17T19:12:05.354271,0.07,0.24,0.94,-25.33,13.67,-46.88
2025-10-17T19:12:05.355272,-0.18,-0.03,1.13,60.06,-23.07,-23.74
2025-10-17T19:12:05.413266,-0.18,-0.07,1.16,61.58,-18.74,22.58
2025-10-17T19:12:05.414269,0.19,0.17,0.88,-50.17,22.52,0.67
2025-10-17T19:12:05.473526,0.08,0.12,0.87,-72.88,33.57,-41.87
2025-10-17T19:12:05.474529,-0.10,-0.04,1.08,-13.18,-12.02,-36.01
2025-10-17T19:12:05.475526,-0.17,-0.13,1.15,-3.36,-7.08,-2.99
2025-10-17T19:12:05.533274,-0.14,-0.13,1.07,-49.93,13.61,13.67
2025-10-17T19:12:05.534274,0.08,0.06,1.01,-135.44,26.12,-1.22
2025-10-17T19:12:05.593260,0.07,0.09,1.01,-52.61,6.71,-15.26
2025-10-17T19:12:05.594264,-0.09,-0.08,1.09,48.40,-44.31,-1.46
2025-10-17T19:12:05.653604,-0.14,-0.20,1.14,-8.91,-20.26,6.65
2025-10-17T19:12:05.653604,-0.01,-0.05,1.09,-54.32,24.05,8.24
2025-10-17T19:12:05.655604,0.08,0.08,0.94,9.89,22.83,9.09
2025-10-17T19:12:05.713698,-0.01,-0.01,0.97,59.08,-16.97,-2.99
2025-10-17T19:12:05.713698,-0.15,-0.12,1.14,50.96,-56.95,4.58
2025-10-17T19:12:05.715697,-0.07,-0.05,1.10,22.03,-29.85,12.02
2025-10-17T19:12:05.773255,0.14,0.09,0.97,-13.92,27.71,-15.32
2025-10-17T19:12:05.774260,0.03,0.04,0.99,24.29,2.93,-26.37
2025-10-17T19:12:05.833638,-0.04,0.02,1.05,48.71,-21.85,-17.94
2025-10-17T19:12:05.833638,-0.04,0.06,1.02,33.51,-11.72,-4.39
2025-10-17T19:12:05.835638,0.05,0.09,0.96,3.85,21.06,-9.89
2025-10-17T19:12:05.893348,0.06,0.09,1.00,-9.77,30.70,-28.32
2025-10-17T19:12:05.894353,0.04,0.06,0.95,20.14,4.94,-27.71
2025-10-17T19:12:05.953251,-0.07,-0.08,0.95,38.94,-9.64,-13.43
2025-10-17T19:12:05.954256,0.01,-0.15,0.96,-13.98,0.00,-19.90
2025-10-17T19:12:05.955256,0.06,-0.14,1.02,-51.88,18.62,-38.39
2025-10-17T19:12:06.013250,-0.06,-0.27,1.24,-22.83,9.22,-50.96
2025-10-17T19:12:06.014254,-0.19,-0.30,1.32,-2.01,-11.11,-41.81
2025-10-17T19:12:06.073246,-0.08,-0.30,1.11,8.00,11.05,0.92
2025-10-17T19:12:06.074258,0.00,-0.21,1.04,-8.79,27.65,-2.20
2025-10-17T19:12:06.133246,-0.01,-0.17,0.99,-0.92,12.39,-4.03
2025-10-17T19:12:06.134251,-0.05,-0.13,1.03,31.56,-21.48,14.28
2025-10-17T19:12:06.135251,-0.02,-0.12,1.10,24.29,-28.08,24.66
2025-10-17T19:12:06.193420,0.07,0.01,1.04,-3.36,11.60,13.37
2025-10-17T19:12:06.194421,0.03,0.04,1.01,12.45,16.91,0.49
2025-10-17T19:12:06.253384,-0.02,-0.05,0.99,40.16,-2.08,11.78
2025-10-17T19:12:06.254387,-0.01,-0.03,1.13,1.83,-10.01,7.75
2025-10-17T19:12:06.255386,0.00,0.09,1.04,-23.86,22.03,2.56
2025-10-17T19:12:06.313241,-0.01,-0.01,0.89,-3.42,37.96,-2.99
2025-10-17T19:12:06.314248,-0.07,-0.09,1.02,13.24,-2.44,6.84
2025-10-17T19:12:06.373251,-0.11,0.01,1.18,-10.07,-12.63,7.87
2025-10-17T19:12:06.374253,0.02,0.15,0.83,-31.19,63.48,2.01
2025-10-17T19:12:06.375251,-0.06,0.13,0.84,-15.99,47.67,1.04
2025-10-17T19:12:06.433447,-0.16,0.11,1.04,11.54,-38.70,13.98
2025-10-17T19:12:06.434446,-0.14,0.09,1.03,7.32,-22.34,21.79
2025-10-17T19:12:06.493281,-0.15,0.07,1.00,6.84,27.22,28.08
2025-10-17T19:12:06.494281,-0.11,0.14,0.93,0.43,-8.54,27.71
2025-10-17T19:12:06.495281,-0.06,0.24,0.98,-3.23,-24.48,11.05
2025-10-17T19:12:06.553234,-0.14,0.09,1.02,-1.89,-8.18,11.23
2025-10-17T19:12:06.554238,-0.12,0.05,0.94,-6.23,13.31,19.78
2025-10-17T19:12:06.613599,-0.09,0.12,0.99,-6.16,-12.02,21.36
2025-10-17T19:12:06.613599,-0.04,0.15,0.99,-8.67,-16.48,12.76
2025-10-17T19:12:06.615600,-0.10,0.10,0.98,-11.35,-8.00,13.18
2025-10-17T19:12:06.673515,-0.11,0.06,0.98,-7.32,-0.31,21.73
2025-10-17T19:12:06.674519,-0.06,0.11,0.98,-5.00,-13.31,23.74
2025-10-17T19:12:06.733368,-0.08,0.13,1.07,-0.67,-13.37,22.28
2025-10-17T19:12:06.734369,-0.04,0.08,1.01,-11.60,5.00,8.54
2025-10-17T19:12:06.735369,-0.05,0.04,0.93,-13.31,14.34,7.93
2025-10-17T19:12:06.793364,-0.11,0.10,0.99,-7.51,-15.62,19.65
2025-10-17T19:12:06.794366,-0.07,0.07,1.07,0.67,-15.87,24.72
2025-10-17T19:12:06.853368,-0.01,0.04,1.01,3.66,6.47,23.07
2025-10-17T19:12:06.854368,-0.02,-0.05,0.95,7.69,2.81,19.47
2025-10-17T19:12:06.913226,-0.04,-0.07,0.98,-6.65,-14.10,25.82
2025-10-17T19:12:06.914236,-0.05,0.01,1.07,-20.45,-13.37,31.13
2025-10-17T19:12:06.915243,0.06,0.11,1.04,-30.82,8.00,29.85
2025-10-17T19:12:06.973222,0.00,0.09,1.02,-22.52,0.24,18.74
2025-10-17T19:12:06.974231,-0.07,0.12,1.02,0.24,-6.65,32.90
2025-10-17T19:12:07.032880,-0.06,0.22,1.07,-26.67,6.47,48.16
2025-10-17T19:12:07.033881,-0.01,0.37,1.06,-38.88,16.30,55.11
2025-10-17T19:12:07.034882,0.00,0.56,1.02,-15.69,-3.30,42.79
2025-10-17T19:12:07.093380,-0.01,0.63,1.04,-7.20,-16.91,17.52
2025-10-17T19:12:07.094381,-0.05,0.74,1.09,27.16,-21.97,16.85
2025-10-17T19:12:07.153217,-0.02,0.80,1.02,10.19,-5.43,8.91
2025-10-17T19:12:07.154347,0.01,0.77,0.95,-7.14,0.49,2.26
2025-10-17T19:12:07.155348,0.05,0.70,0.93,-4.82,-12.21,-29.05
2025-10-17T19:12:07.213217,0.02,0.58,0.93,7.75,-17.88,-46.69
2025-10-17T19:12:07.214221,0.01,0.33,0.96,2.93,-14.10,-50.60
2025-10-17T19:12:07.332214,-0.00,0.22,0.99,-2.50,-7.57,-37.96
2025-10-17T19:12:07.333250,0.07,0.20,1.00,4.88,-11.90,-33.81
2025-10-17T19:12:07.334248,-0.01,-0.03,1.01,-14.59,-12.51,-45.35
2025-10-17T19:12:07.336755,-0.02,-0.08,1.07,-6.65,-8.91,-31.92
2025-10-17T19:12:07.337763,0.10,0.04,1.02,10.19,3.85,-31.43
2025-10-17T19:12:07.453210,0.05,-0.06,1.00,20.51,13.37,-12.76
2025-10-17T19:12:07.454215,-0.08,-0.21,1.20,8.00,27.71,-1.10
2025-10-17T19:12:07.455215,0.06,0.08,0.98,1.04,25.51,15.93
2025-10-17T19:12:07.456215,0.09,0.09,0.97,-3.78,23.25,-27.16
2025-10-17T19:12:07.458503,-0.05,-0.05,1.08,23.19,-11.90,-29.66
2025-10-17T19:12:07.513471,-0.10,-0.17,1.09,24.90,2.50,-21.55
2025-10-17T19:12:07.514472,-0.03,0.04,1.08,-5.98,23.68,-4.15
2025-10-17T19:12:07.515471,0.07,0.14,1.01,-1.34,27.40,-28.50
2025-10-17T19:12:07.573208,-0.07,-0.01,1.00,32.78,-4.52,-34.30
2025-10-17T19:12:07.574400,-0.18,-0.16,1.10,24.11,-14.10,1.28
2025-10-17T19:12:07.693203,0.03,0.04,1.09,-21.06,19.10,5.19
2025-10-17T19:12:07.694207,0.02,0.08,1.01,-14.95,41.20,-22.89
2025-10-17T19:12:07.695208,-0.06,-0.02,0.98,26.37,2.69,-22.28
2025-10-17T19:12:07.696211,-0.15,-0.09,1.06,37.60,-31.74,1.89
2025-10-17T19:12:07.698631,0.02,0.06,1.02,-29.24,5.00,-2.50
2025-10-17T19:12:07.753694,0.02,0.10,1.03,-30.58,25.39,-19.90
2025-10-17T19:12:07.753694,-0.04,0.07,1.05,33.39,-8.73,-14.53
2025-10-17T19:12:07.813201,-0.13,0.00,1.07,42.85,-23.74,-6.41
2025-10-17T19:12:07.814213,-0.01,0.13,1.02,-16.91,1.28,-8.97
2025-10-17T19:12:07.815219,0.01,0.19,1.00,-16.97,22.03,-14.59
2025-10-17T19:12:07.873199,-0.02,0.19,0.97,23.50,3.54,-17.27
2025-10-17T19:12:07.874205,-0.19,0.08,1.00,53.41,-29.97,1.46
2025-10-17T19:12:07.933198,-0.14,0.19,0.94,39.92,-28.56,21.12
2025-10-17T19:12:07.934203,0.05,0.30,0.91,-22.52,-4.33,-11.60
2025-10-17T19:12:07.935203,0.05,0.29,0.87,-10.68,10.25,-33.08
2025-10-17T19:12:07.993208,-0.06,-0.10,0.92,36.80,-24.11,-24.48
2025-10-17T19:12:07.994208,0.04,-0.33,1.05,-24.48,-34.97,-6.29
2025-10-17T19:12:08.053276,0.17,-0.26,1.04,-65.43,-2.75,-14.47
2025-10-17T19:12:08.054279,0.12,-0.34,1.16,-10.56,-3.11,-39.25
2025-10-17T19:12:08.055279,-0.11,-0.63,1.26,34.73,-39.92,-18.68
2025-10-17T19:12:08.113194,-0.05,-0.60,1.28,21.91,-39.73,40.83
2025-10-17T19:12:08.114197,0.10,-0.24,1.13,-11.84,30.58,36.93
2025-10-17T19:12:08.173204,0.13,-0.15,1.00,15.69,39.18,35.46
2025-10-17T19:12:08.174203,0.08,-0.10,1.05,43.27,-27.47,28.56
2025-10-17T19:12:08.175204,0.10,-0.07,1.09,28.14,-32.23,34.36
2025-10-17T19:12:08.292187,0.06,0.07,1.10,-9.64,34.12,21.55
2025-10-17T19:12:08.293197,0.08,0.06,1.04,10.80,22.64,31.01
2025-10-17T19:12:08.294194,0.12,0.04,1.03,18.01,-0.61,27.10
2025-10-17T19:12:08.296697,0.02,0.05,1.10,-6.65,-3.30,24.54
2025-10-17T19:12:08.296697,0.05,0.08,0.99,-23.68,30.58,20.51
2025-10-17T19:12:08.353432,0.04,0.07,0.95,-32.78,24.29,8.97
2025-10-17T19:12:08.354433,0.06,0.12,0.97,-18.25,-1.59,13.67
2025-10-17T19:12:08.413429,0.01,0.12,1.04,3.60,-6.59,21.79
2025-10-17T19:12:08.414432,0.01,0.12,0.99,4.52,18.13,15.44
2025-10-17T19:12:08.473182,0.00,0.04,0.99,14.40,13.85,19.41
2025-10-17T19:12:08.474477,0.03,0.07,1.04,-10.50,-1.22,16.11
2025-10-17T19:12:08.475483,-0.03,0.14,1.02,-23.74,16.17,15.26
2025-10-17T19:12:08.533181,-0.05,0.11,0.91,-5.37,30.40,17.58
2025-10-17T19:12:08.534186,-0.01,0.13,0.91,14.95,-12.02,15.50
2025-10-17T19:12:08.593367,-0.07,0.04,1.00,6.71,-20.69,13.61
2025-10-17T19:12:08.594367,-0.04,0.11,1.01,-16.48,9.46,16.85
2025-10-17T19:12:08.595368,-0.00,0.17,0.96,-25.88,16.42,16.66
2025-10-17T19:12:08.653180,-0.06,0.16,0.92,16.17,-10.99,20.39
2025-10-17T19:12:08.713464,-0.04,0.14,0.95,17.52,-28.50,22.71
2025-10-17T19:12:08.714463,-0.02,0.13,0.98,-1.53,-18.37,18.62
2025-10-17T19:12:08.715463,-0.02,0.10,0.98,-2.93,-1.28,25.15
2025-10-17T19:12:08.716464,0.04,0.22,0.98,-2.56,3.72,37.41
2025-10-17T19:12:08.773313,0.05,0.22,0.99,-11.78,1.65,19.23
2025-10-17T19:12:08.774316,0.01,0.18,1.04,-5.80,2.93,13.18
2025-10-17T19:12:08.833173,-0.02,0.09,1.14,13.06,3.05,19.23
2025-10-17T19:12:08.834177,0.09,0.03,1.13,-12.21,12.45,12.02
2025-10-17T19:12:08.835180,0.01,-0.03,1.05,-30.40,30.52,1.46
2025-10-17T19:12:08.893344,0.01,-0.01,1.05,-8.73,19.47,20.20
2025-10-17T19:12:08.894384,-0.01,0.02,1.13,-3.78,-1.59,24.11
2025-10-17T19:12:08.953758,0.00,0.05,1.11,-29.30,0.49,30.64
2025-10-17T19:12:08.953758,-0.00,0.13,1.03,-49.38,17.21,36.32
2025-10-17T19:12:08.954759,-0.06,0.14,0.91,-32.10,29.30,40.16
2025-10-17T19:12:09.013168,-0.02,0.36,1.05,11.23,-3.05,60.73
2025-10-17T19:12:09.014172,0.02,0.48,1.06,-3.66,8.00,61.10
2025-10-17T19:12:09.073165,0.05,0.73,0.97,3.97,37.11,59.14
2025-10-17T19:12:09.074066,0.07,0.81,0.92,18.86,13.43,47.97
2025-10-17T19:12:09.133229,0.05,0.81,0.89,11.23,-11.29,19.29
2025-10-17T19:12:09.134231,0.00,0.80,0.92,-9.64,-2.99,3.66
2025-10-17T19:12:09.135232,0.07,0.77,0.84,-8.00,-0.31,-15.81
2025-10-17T19:12:09.193163,0.04,0.57,0.88,4.03,-7.63,-34.36
2025-10-17T19:12:09.194168,-0.00,0.40,0.97,16.24,-6.90,-32.59
2025-10-17T19:12:09.253162,0.01,0.28,0.99,-4.46,-5.74,-31.68
2025-10-17T19:12:09.254167,-0.00,0.22,0.94,-15.75,2.44,-29.48
2025-10-17T19:12:09.255168,0.00,0.16,0.97,-15.93,-6.96,-36.99
2025-10-17T19:12:09.313613,-0.05,0.09,1.07,-2.32,-15.62,-19.23
2025-10-17T19:12:09.313613,0.00,0.03,1.05,-13.37,-3.60,-14.95
2025-10-17T19:12:09.432458,0.02,0.14,0.99,-11.84,-5.25,-36.25
2025-10-17T19:12:09.433458,-0.02,0.12,1.07,6.65,-20.69,-39.67
2025-10-17T19:12:09.434459,-0.05,-0.04,1.10,-16.05,-10.13,-33.69
2025-10-17T19:12:09.436459,0.02,0.01,1.01,-28.81,18.37,-29.17
2025-10-17T19:12:09.436459,0.06,0.15,1.00,22.46,4.76,-39.12
2025-10-17T19:12:09.493157,-0.02,0.03,1.10,34.24,-17.27,-46.94
2025-10-17T19:12:09.494366,-0.03,-0.08,1.04,15.32,-3.42,-34.79
2025-10-17T19:12:09.495374,0.01,-0.02,0.96,-23.99,16.54,-22.71
2025-10-17T19:12:09.553155,0.03,0.11,1.03,-20.94,-6.53,-32.23
2025-10-17T19:12:09.554161,0.00,-0.03,1.01,13.49,-15.26,-39.06
2025-10-17T19:12:09.613314,-0.07,-0.13,1.08,-13.98,9.95,-22.34
2025-10-17T19:12:09.614316,0.02,0.02,1.02,-23.32,18.74,-21.79
2025-10-17T19:12:09.615316,0.03,0.15,0.99,17.09,-9.77,-47.91
2025-10-17T19:12:09.673215,-0.02,-0.02,0.98,39.79,-27.28,-44.86
2025-10-17T19:12:09.674218,-0.11,-0.21,1.06,-21.55,0.18,-19.90
2025-10-17T19:12:09.733161,-0.02,0.02,1.04,-32.78,31.19,-12.33
2025-10-17T19:12:09.734162,0.07,0.10,0.95,22.28,0.73,-23.44
2025-10-17T19:12:09.793237,-0.09,-0.23,1.04,33.94,-37.05,-11.29
2025-10-17T19:12:09.794240,-0.10,-0.30,1.04,-14.04,-27.53,8.30
2025-10-17T19:12:09.795239,-0.01,-0.16,1.10,-64.03,6.29,18.19
2025-10-17T19:12:09.853147,0.01,-0.00,1.14,-42.05,20.51,27.47
2025-10-17T19:12:09.854180,0.10,0.08,1.02,26.00,7.08,6.96
2025-10-17T19:12:09.913146,0.07,-0.00,0.98,56.95,-41.38,-10.44
2025-10-17T19:12:09.914159,-0.02,-0.05,1.09,52.12,-49.87,-13.24
2025-10-17T19:12:09.915307,0.03,0.05,1.10,21.73,-13.61,-14.71
2025-10-17T19:12:09.973207,0.07,0.08,1.01,5.19,17.94,-16.48
2025-10-17T19:12:09.974208,0.12,0.04,0.90,12.08,11.35,-17.58
2025-10-17T19:12:10.033386,0.14,0.04,1.00,-17.82,-2.87,-39.55
2025-10-17T19:12:10.034390,0.15,-0.06,1.04,9.46,14.28,-50.29
2025-10-17T19:12:10.036387,0.08,-0.44,0.90,39.98,15.69,-58.53
2025-10-17T19:12:10.093323,-0.06,-0.63,0.99,12.39,-13.98,-37.41
2025-10-17T19:12:10.094324,0.02,-0.47,1.18,-27.77,-29.11,-18.98
2025-10-17T19:12:10.153139,0.07,-0.37,1.16,0.85,13.43,-13.92
2025-10-17T19:12:10.154143,0.05,-0.36,1.01,35.52,18.07,-3.54
2025-10-17T19:12:10.155143,0.03,-0.32,0.99,23.32,-19.53,10.74
2025-10-17T19:12:10.213137,0.08,-0.10,1.10,-2.44,-33.51,12.27
2025-10-17T19:12:10.273135,0.13,0.09,1.07,1.28,6.65,12.70
2025-10-17T19:12:10.274139,0.07,-0.10,1.00,1.77,24.29,7.20
2025-10-17T19:12:10.275140,0.07,-0.05,1.10,3.91,-6.84,23.74
2025-10-17T19:12:10.276645,0.12,0.05,1.06,-28.99,15.32,12.70
2025-10-17T19:12:10.333133,0.07,0.14,1.04,-24.72,32.35,9.09
2025-10-17T19:12:10.334138,-0.00,0.03,1.05,16.78,8.30,19.84
2025-10-17T19:12:10.393132,0.05,0.07,1.11,19.96,-14.65,23.32
2025-10-17T19:12:10.394137,0.03,0.11,1.05,-24.05,11.41,12.33
2025-10-17T19:12:10.395137,0.04,0.12,0.96,-24.05,19.35,12.70
2025-10-17T19:12:10.453130,-0.02,0.05,1.04,11.96,-0.31,14.59
2025-10-17T19:12:10.454135,-0.01,0.10,1.09,21.06,-21.06,31.01
2025-10-17T19:12:10.513128,0.02,0.16,1.00,-10.13,3.97,19.29
2025-10-17T19:12:10.513128,-0.01,0.14,0.92,-11.54,18.98,19.71
2025-10-17T19:12:10.573127,0.04,0.16,0.94,12.94,-11.05,18.01
2025-10-17T19:12:10.574134,-0.06,0.08,1.04,8.48,-8.42,14.22
2025-10-17T19:12:10.575132,-0.08,0.06,0.92,-12.39,26.55,22.34
2025-10-17T19:12:10.633680,0.01,0.12,0.87,-12.88,13.49,21.91
2025-10-17T19:12:10.633680,0.00,0.13,0.96,-5.68,-20.81,16.91
2025-10-17T19:12:10.693123,-0.01,0.06,0.99,4.94,-5.31,20.57
2025-10-17T19:12:10.694127,0.06,0.09,0.92,-3.23,13.55,17.46
2025-10-17T19:12:10.695128,0.06,0.17,0.91,-8.54,-2.62,11.54
2025-10-17T19:12:10.753147,-0.01,0.26,1.02,-6.71,-21.06,10.99
2025-10-17T19:12:10.754147,-0.13,0.30,1.06,-5.80,4.88,14.22
2025-10-17T19:12:10.813121,-0.17,0.32,0.99,-3.54,15.99,13.37
2025-10-17T19:12:10.814125,-0.24,0.34,0.96,-1.65,-12.82,10.50
2025-10-17T19:12:10.815126,-0.30,0.39,1.09,-7.08,-19.47,6.59
2025-10-17T19:12:10.873188,-0.23,0.40,1.17,2.44,2.32,2.01
2025-10-17T19:12:10.874189,-0.19,0.26,1.05,13.92,13.31,5.19
2025-10-17T19:12:10.933116,-0.11,0.14,0.99,1.89,1.77,5.74
2025-10-17T19:12:10.934121,-0.07,0.15,1.05,-13.67,0.49,8.91
2025-10-17T19:12:10.935120,-0.02,0.19,1.09,-12.15,8.42,1.28
2025-10-17T19:12:10.993311,-0.05,0.08,0.98,10.93,13.67,-2.26
2025-10-17T19:12:10.994312,-0.05,0.03,0.95,13.12,-2.81,6.10
2025-10-17T19:12:11.053309,0.01,0.10,1.03,-11.29,0.18,8.00
2025-10-17T19:12:11.054311,0.02,0.12,1.00,-4.46,7.39,-0.79
2025-10-17T19:12:11.055820,0.01,0.03,0.97,8.06,-3.78,-0.31
2025-10-17T19:12:11.173463,0.01,-0.02,0.98,4.58,-9.03,7.32
2025-10-17T19:12:11.173463,0.04,0.04,1.00,-12.15,2.26,13.24
2025-10-17T19:12:11.175465,0.09,0.11,0.99,-12.70,9.40,4.58
2025-10-17T19:12:11.176464,0.12,0.06,0.97,12.70,-6.77,4.21
2025-10-17T19:12:11.178549,0.22,-0.02,1.09,27.77,-17.46,14.53
2025-10-17T19:12:11.233110,0.39,0.02,1.12,-16.85,10.07,12.70
2025-10-17T19:12:11.234114,0.41,0.03,1.12,-28.56,16.48,11.29
2025-10-17T19:12:11.293571,0.45,0.08,1.09,0.85,-0.67,8.00
2025-10-17T19:12:11.293571,0.42,0.06,1.09,19.84,-8.91,5.74
2025-10-17T19:12:11.353104,0.37,0.06,1.07,12.15,2.56,1.95
2025-10-17T19:12:11.354108,0.35,0.08,1.04,-5.13,8.12,-0.79
2025-10-17T19:12:11.355109,0.27,0.10,1.01,-3.54,5.92,0.55
2025-10-17T19:12:11.413538,0.23,0.16,1.03,8.73,-0.92,-5.62
2025-10-17T19:12:11.413538,0.21,0.15,1.00,13.73,0.85,-11.17
2025-10-17T19:12:11.473103,0.19,0.11,0.94,15.62,-2.93,-13.37
2025-10-17T19:12:11.474107,0.15,0.09,0.97,5.49,-4.15,-15.75
2025-10-17T19:12:11.533101,0.12,0.10,1.01,-5.37,5.13,-16.85
2025-10-17T19:12:11.534510,0.14,0.11,0.94,-9.28,7.51,-22.03
2025-10-17T19:12:11.535516,0.10,0.10,0.89,3.97,-4.27,-17.58
2025-10-17T19:12:11.593624,0.05,0.09,1.03,8.91,-25.09,-24.05
2025-10-17T19:12:11.593624,0.05,0.04,1.02,1.40,-9.70,-26.18
2025-10-17T19:12:11.595633,0.02,-0.01,0.95,-7.32,5.62,-20.26
2025-10-17T19:12:11.653100,-0.00,0.03,0.98,-7.26,-15.56,-26.00
2025-10-17T19:12:11.654104,-0.03,0.04,1.03,-7.26,-13.49,-26.86
2025-10-17T19:12:11.713097,-0.04,0.01,1.02,2.01,-4.03,-19.84
2025-10-17T19:12:11.714101,-0.01,0.05,1.02,2.50,-12.15,-19.96
2025-10-17T19:12:11.715102,-0.06,0.01,1.06,2.75,-13.73,-18.62
2025-10-17T19:12:11.773300,-0.08,-0.01,1.07,3.72,-9.77,-12.88
2025-10-17T19:12:11.833169,-0.09,0.04,1.06,8.12,-5.80,-2.56
2025-10-17T19:12:11.834170,-0.14,0.13,1.06,1.10,-11.60,-8.30
2025-10-17T19:12:11.835170,-0.27,0.21,1.19,-13.18,-17.21,-18.86
2025-10-17T19:12:11.836171,-0.25,0.14,1.17,3.05,8.67,-14.16
2025-10-17T19:12:11.893541,-0.17,0.09,0.98,-0.55,26.79,-16.54
2025-10-17T19:12:11.893541,-0.15,-0.03,0.85,-7.32,7.57,-11.05
2025-10-17T19:12:11.953327,-0.18,-0.12,0.89,0.12,-7.20,-2.44
2025-10-17T19:12:11.954329,-0.14,-0.05,0.97,-12.51,4.70,-4.27
2025-10-17T19:12:11.955327,-0.09,0.01,0.97,-5.49,14.59,-4.39
2025-10-17T19:12:12.013244,-0.15,0.02,0.98,-4.27,6.47,-10.25
2025-10-17T19:12:12.014243,-0.28,0.01,1.00,-0.06,-1.77,-10.07
2025-10-17T19:12:12.073298,-0.29,-0.01,0.98,0.00,2.81,4.64
2025-10-17T19:12:12.074301,-0.27,0.01,1.01,-8.18,-2.20,16.72
2025-10-17T19:12:12.133086,-0.26,0.11,1.10,-13.73,-4.70,14.71
2025-10-17T19:12:12.134091,-0.19,0.10,1.07,0.37,8.18,12.08
2025-10-17T19:12:12.192082,-0.19,0.01,1.02,3.11,6.65,8.12
2025-10-17T19:12:12.193087,-0.20,-0.03,1.09,13.31,-6.53,17.03
2025-10-17T19:12:12.194089,-0.12,-0.02,1.10,1.16,2.44,25.39
2025-10-17T19:12:12.253296,-0.07,0.05,1.06,-14.77,9.70,28.14
2025-10-17T19:12:12.254296,-0.05,0.08,1.09,-1.53,6.59,25.88
2025-10-17T19:12:12.255298,-0.05,0.02,1.07,8.73,6.96,21.61
2025-10-17T19:12:12.313513,-0.03,-0.00,1.08,-1.40,12.51,15.08
2025-10-17T19:12:12.313513,-0.03,0.03,1.03,-8.18,20.08,26.06
2025-10-17T19:12:12.372847,-0.02,0.05,1.00,-11.54,19.17,26.25
2025-10-17T19:12:12.373848,0.01,0.07,1.01,0.55,12.33,22.52
2025-10-17T19:12:12.374848,0.00,0.02,0.97,1.28,16.24,16.91
2025-10-17T19:12:12.433077,-0.02,-0.02,0.93,-5.00,9.89,20.51
2025-10-17T19:12:12.434082,0.03,0.10,0.99,-19.65,5.98,22.46
2025-10-17T19:12:12.493076,0.03,0.10,0.96,-7.69,12.21,22.71
2025-10-17T19:12:12.494080,0.03,0.02,0.96,5.13,-9.34,17.94
2025-10-17T19:12:12.495081,0.05,0.01,1.03,1.10,-7.57,15.20
2025-10-17T19:12:12.553507,0.05,0.04,1.03,-17.40,4.88,18.13
2025-10-17T19:12:12.553507,0.10,0.11,0.99,-6.84,-0.12,9.34
2025-10-17T19:12:12.613404,0.13,0.09,1.03,4.03,-7.26,0.92
2025-10-17T19:12:12.614405,0.12,-0.03,1.03,7.63,-12.21,7.45
2025-10-17T19:12:12.615407,0.14,-0.02,1.01,-13.85,-4.94,6.59
2025-10-17T19:12:12.673489,0.19,0.06,1.03,-18.68,-4.94,11.47
2025-10-17T19:12:12.673489,0.22,0.12,1.01,-8.00,-6.16,6.47
2025-10-17T19:12:12.793067,0.23,0.00,0.98,2.32,-9.52,-1.59
2025-10-17T19:12:12.794070,0.26,-0.06,1.00,-2.81,-7.45,6.35
2025-10-17T19:12:12.795071,0.37,-0.04,1.03,-14.34,-1.46,-0.06
2025-10-17T19:12:12.796577,0.38,-0.01,1.05,3.78,-6.59,-0.37
2025-10-17T19:12:12.797584,0.38,0.00,1.02,9.64,-9.28,-4.33
2025-10-17T19:12:12.853289,0.32,0.03,1.05,12.82,-10.74,-2.93
2025-10-17T19:12:12.854292,0.33,0.07,1.03,3.30,-0.43,-6.90
2025-10-17T19:12:12.912064,0.28,0.03,1.00,5.92,-0.67,-9.64
2025-10-17T19:12:12.913070,0.27,0.04,1.04,10.38,-11.41,-12.70
2025-10-17T19:12:12.914070,0.23,0.07,1.03,9.58,-5.13,-12.82
2025-10-17T19:12:12.972834,0.21,0.06,0.96,3.72,1.53,-18.80
2025-10-17T19:12:12.973835,0.16,0.07,1.03,10.62,1.10,-20.32
2025-10-17T19:12:13.033062,0.14,0.07,1.02,13.12,-7.08,-21.42
2025-10-17T19:12:13.034065,0.11,0.05,1.04,9.89,-4.09,-22.58
2025-10-17T19:12:13.035066,0.10,0.06,1.04,-1.65,1.40,-22.71
2025-10-17T19:12:13.093311,0.10,0.01,0.96,1.59,7.75,-22.40
2025-10-17T19:12:13.094317,0.04,0.00,1.01,8.06,-8.36,-21.42
2025-10-17T19:12:13.153492,0.02,0.04,1.10,14.34,-27.47,-14.10
2025-10-17T19:12:13.153492,0.03,0.04,1.08,13.79,-15.81,-13.18
2025-10-17T19:12:13.155492,0.05,0.05,1.00,5.80,1.77,-19.10
2025-10-17T19:12:13.213623,0.03,0.04,1.02,10.19,-9.03,-17.15
2025-10-17T19:12:13.213623,-0.04,0.02,1.13,14.16,-13.06,-15.87
2025-10-17T19:12:13.273055,-0.02,-0.01,1.05,5.31,3.23,-13.55
2025-10-17T19:12:13.274059,-0.05,0.00,1.09,5.62,0.79,-9.52
2025-10-17T19:12:13.275060,0.02,0.06,1.04,0.98,-1.28,-10.80
2025-10-17T19:12:13.333054,-0.01,0.10,1.09,19.04,-12.57,-6.71
2025-10-17T19:12:13.334181,0.02,0.12,1.10,27.53,-8.00,-11.54
2025-10-17T19:12:13.393164,-0.01,0.03,0.98,22.34,11.90,-13.00
2025-10-17T19:12:13.394166,-0.05,0.04,0.94,10.07,0.43,-6.35
2025-10-17T19:12:13.395168,-0.01,0.15,0.94,8.42,-11.23,5.37
2025-10-17T19:12:13.453227,-0.00,0.22,1.05,14.95,-22.03,2.62
2025-10-17T19:12:13.454226,0.04,0.19,0.98,15.75,2.08,-8.85
2025-10-17T19:12:13.513360,0.00,0.12,0.90,16.11,9.40,-3.36
2025-10-17T19:12:13.514368,0.03,0.17,0.86,4.94,-5.86,-0.49
2025-10-17T19:12:13.514964,-0.01,0.24,1.02,-2.20,-21.00,-5.86
2025-10-17T19:12:13.573048,0.02,0.25,0.99,-3.23,-14.77,-11.66
2025-10-17T19:12:13.574052,-0.03,0.20,0.91,7.14,-2.99,-8.85
2025-10-17T19:12:13.633047,-0.08,0.15,0.87,-10.07,-7.63,-15.44
2025-10-17T19:12:13.634051,-0.23,0.17,1.01,-17.58,-14.28,-7.02
2025-10-17T19:12:13.635052,-0.25,0.17,1.12,-25.63,-4.82,-2.75
2025-10-17T19:12:13.693616,-0.22,0.13,1.08,-21.48,15.99,0.49
2025-10-17T19:12:13.693616,-0.21,0.07,1.07,-12.70,13.18,-1.40
2025-10-17T19:12:13.753041,-0.22,0.06,1.13,-4.15,0.67,2.14
2025-10-17T19:12:13.754045,-0.13,0.02,1.08,-10.93,21.48,0.61
2025-10-17T19:12:13.813275,-0.11,0.00,1.01,-10.44,39.06,5.55
2025-10-17T19:12:13.814276,-0.11,0.01,0.98,-15.01,24.54,11.90
2025-10-17T19:12:13.815275,-0.12,0.03,1.06,-10.44,7.57,19.47
2025-10-17T19:12:13.873040,-0.07,0.03,1.03,-10.56,18.92,17.15
2025-10-17T19:12:13.874044,-0.04,0.03,0.99,-10.31,27.95,13.31
2025-10-17T19:12:13.933471,-0.05,0.05,0.98,-10.74,26.00,9.70
2025-10-17T19:12:13.933471,-0.06,0.07,1.01,0.31,13.61,16.60
2025-10-17T19:12:13.935471,-0.06,0.05,1.06,6.23,6.65,15.62
2025-10-17T19:12:13.993180,-0.01,0.06,1.00,3.17,11.35,14.77
2025-10-17T19:12:13.994180,-0.01,0.06,0.93,0.49,10.74,11.72
2025-10-17T19:12:14.053344,-0.07,0.11,1.02,2.50,-5.62,14.65
2025-10-17T19:12:14.054343,-0.02,0.09,1.02,-6.23,1.95,17.94
2025-10-17T19:12:14.055343,-0.02,0.07,1.00,-10.74,9.58,16.24
2025-10-17T19:12:14.113032,-0.00,0.09,1.02,-8.61,6.10,16.30
2025-10-17T19:12:14.114037,0.01,0.08,1.07,-7.26,0.49,13.98
2025-10-17T19:12:14.173181,0.03,0.03,1.03,-9.16,9.58,13.37
2025-10-17T19:12:14.174181,0.01,0.02,1.00,-12.15,6.96,12.76
2025-10-17T19:12:14.175183,-0.02,0.02,1.04,-7.57,-4.09,16.11
2025-10-17T19:12:14.233029,0.01,0.03,1.07,-3.97,-4.33,18.19
2025-10-17T19:12:14.234034,0.03,0.01,1.03,-13.79,7.45,15.32
2025-10-17T19:12:14.293255,0.06,0.02,0.95,-21.67,9.40,11.47
2025-10-17T19:12:14.294256,0.04,0.08,1.06,-7.87,-11.84,14.77
2025-10-17T19:12:14.295255,0.09,0.06,1.07,-4.09,-5.80,9.03
2025-10-17T19:12:14.353222,0.12,0.04,1.08,4.27,1.46,9.46
2025-10-17T19:12:14.354223,0.18,0.05,1.03,3.60,5.98,10.74
2025-10-17T19:12:14.412453,0.27,0.11,1.02,0.61,-10.50,0.43
2025-10-17T19:12:14.413729,0.35,0.07,1.01,15.93,-13.37,-2.32
2025-10-17T19:12:14.472264,0.37,-0.05,1.07,14.59,-11.72,1.59
2025-10-17T19:12:14.473266,0.41,0.01,1.06,0.98,-5.49,6.29
2025-10-17T19:12:14.474446,0.41,0.07,1.02,-6.84,0.18,1.04
2025-10-17T19:12:14.533020,0.37,0.10,1.01,2.93,-4.03,-0.49
2025-10-17T19:12:14.534024,0.34,0.08,1.02,7.87,-9.58,-1.22
2025-10-17T19:12:14.593265,0.29,0.10,1.05,6.29,-9.58,-0.98
2025-10-17T19:12:14.653017,0.27,0.11,1.01,0.43,-1.83,-7.14
2025-10-17T19:12:14.654022,0.22,0.13,1.00,0.98,-4.64,-9.95
2025-10-17T19:12:14.655022,0.18,0.11,1.03,-0.92,-6.90,-13.61
2025-10-17T19:12:14.656527,0.16,0.08,1.02,-5.43,-0.92,-15.81
2025-10-17T19:12:14.657533,0.12,0.05,1.04,-6.71,2.26,-16.42
2025-10-17T19:12:14.712769,0.13,0.04,1.00,-12.94,5.25,-19.78
2025-10-17T19:12:14.713771,0.08,0.03,0.99,-10.56,0.67,-17.09
2025-10-17T19:12:14.773449,0.08,0.02,1.02,-10.74,-5.98,-21.00
2025-10-17T19:12:14.773449,0.07,-0.01,1.03,-6.84,-3.42,-19.59
2025-10-17T19:12:14.833014,0.03,-0.05,0.99,-6.35,1.34,-20.57
2025-10-17T19:12:14.834017,0.03,-0.05,0.97,-4.27,-0.31,-18.19
2025-10-17T19:12:14.835018,0.03,-0.04,0.98,0.00,-13.43,-18.49
2025-10-17T19:12:14.893189,0.00,-0.05,1.05,0.98,-14.95,-15.87
2025-10-17T19:12:14.894189,0.01,-0.07,1.05,-18.01,4.15,-19.17
2025-10-17T19:12:14.953013,-0.03,-0.09,0.97,-15.14,21.00,-18.13
2025-10-17T19:12:14.954017,-0.03,-0.07,0.99,-3.42,1.10,-13.00
2025-10-17T19:12:14.955018,-0.00,-0.04,1.05,1.04,-14.47,-13.18
2025-10-17T19:12:15.013009,0.01,-0.05,1.02,3.11,-3.66,-13.55
2025-10-17T19:12:15.014013,0.02,-0.06,1.00,1.95,1.83,-15.75
2025-10-17T19:12:15.072767,-0.01,-0.02,1.06,1.40,-11.78,-9.89
2025-10-17T19:12:15.073768,-0.02,0.04,1.06,0.00,-13.37,-9.46
2025-10-17T19:12:15.074770,0.00,0.08,1.03,-3.36,-6.96,-16.30
2025-10-17T19:12:15.133546,-0.00,0.07,1.04,3.48,-6.16,-14.83
2025-10-17T19:12:15.133546,0.02,0.05,1.05,1.40,-12.15,-20.26
2025-10-17T19:12:15.193004,0.01,0.00,1.02,4.52,-11.23,-17.46
2025-10-17T19:12:15.194010,-0.07,-0.04,1.06,-1.89,-11.54,-14.59
2025-10-17T19:12:15.195009,-0.09,0.01,1.02,-9.34,0.67,-13.00
2025-10-17T19:12:15.253003,-0.18,0.02,1.05,-12.57,1.53,-15.93
2025-10-17T19:12:15.254010,-0.30,-0.01,1.09,-0.73,-3.54,-12.02
2025-10-17T19:12:15.313001,-0.37,-0.07,1.09,1.04,-4.33,-7.63
2025-10-17T19:12:15.314005,-0.39,-0.10,1.09,-2.99,1.40,3.05
2025-10-17T19:12:15.315006,-0.37,-0.08,1.09,-13.61,6.71,10.62
2025-10-17T19:12:15.373125,-0.30,-0.03,1.01,-15.38,18.25,17.40
2025-10-17T19:12:15.374128,-0.25,-0.01,1.05,-2.26,5.37,22.58
2025-10-17T19:12:15.433431,-0.18,-0.04,1.04,5.37,2.32,25.27
2025-10-17T19:12:15.433431,-0.08,-0.04,1.02,0.92,8.48,22.64
2025-10-17T19:12:15.492996,-0.07,-0.05,1.04,-4.58,5.07,24.78
2025-10-17T19:12:15.494286,0.01,0.01,1.07,-14.04,7.45,29.97
2025-10-17T19:12:15.495291,0.05,0.03,1.07,-3.23,18.62,29.79
2025-10-17T19:12:15.553117,0.08,0.01,1.03,0.73,19.47,21.12
2025-10-17T19:12:15.612252,0.09,-0.01,0.99,3.85,7.57,13.49
2025-10-17T19:12:15.613252,0.04,-0.05,1.07,4.09,-5.68,12.51
2025-10-17T19:12:15.614254,0.09,-0.06,1.00,-14.28,11.72,11.17
2025-10-17T19:12:15.616253,0.08,-0.03,0.96,-14.34,18.43,16.48
2025-10-17T19:12:15.673297,0.10,0.01,0.96,-11.11,-1.34,11.54
2025-10-17T19:12:15.674297,0.07,-0.04,1.03,0.73,-10.99,9.77
2025-10-17T19:12:15.732989,0.09,-0.06,1.00,-2.38,-0.55,6.84
2025-10-17T19:12:15.733993,0.13,-0.03,0.94,-13.31,4.52,6.53
2025-10-17T19:12:15.734995,0.08,0.01,0.98,-11.23,-5.68,8.85
2025-10-17T19:12:15.793421,0.13,0.02,0.97,-15.38,-6.04,-0.92
2025-10-17T19:12:15.793421,0.10,-0.01,1.00,-11.35,-2.69,-1.53
2025-10-17T19:12:15.852986,0.15,-0.05,0.98,-5.92,0.55,-1.16
2025-10-17T19:12:15.853991,0.19,-0.10,1.02,-10.68,1.34,-12.02
2025-10-17T19:12:15.854990,0.25,-0.03,1.12,7.75,-3.17,-3.91
2025-10-17T19:12:15.912984,0.28,-0.06,1.05,59.27,5.80,-2.20
2025-10-17T19:12:15.913989,0.25,-0.08,1.03,116.88,-7.81,7.14
2025-10-17T19:12:16.031984,0.19,-0.14,1.10,115.72,-13.85,-13.49
2025-10-17T19:12:16.032991,0.16,-0.06,1.03,152.95,39.43,-5.07
2025-10-17T19:12:16.034989,0.21,0.16,0.99,207.70,36.01,1.77
2025-10-17T19:12:16.034989,-0.01,0.19,1.11,243.35,-25.76,10.38
2025-10-17T19:12:16.036498,0.04,0.27,1.05,202.88,-27.71,13.43
2025-10-17T19:12:16.092980,0.14,0.48,0.85,184.02,9.95,-16.48
2025-10-17T19:12:16.093985,0.04,0.51,0.85,214.11,-23.01,10.38
2025-10-17T19:12:16.094985,0.00,0.56,0.87,183.29,-41.38,13.73
2025-10-17T19:12:16.153443,0.11,0.74,0.76,209.47,-26.25,7.02
2025-10-17T19:12:16.153443,0.17,0.80,0.55,214.48,-30.88,2.14
2025-10-17T19:12:16.213570,0.07,0.76,0.48,206.79,-54.50,15.14
2025-10-17T19:12:16.213570,0.07,0.81,0.51,192.99,-53.53,23.01
2025-10-17T19:12:16.273408,0.19,0.92,0.43,167.18,3.72,7.39
2025-10-17T19:12:16.273408,0.13,0.83,0.20,149.48,-8.73,18.01
2025-10-17T19:12:16.275408,0.13,0.92,0.23,162.05,-40.34,34.12
2025-10-17T19:12:16.333286,0.16,1.02,0.29,121.40,-16.24,17.46
2025-10-17T19:12:16.334290,0.22,0.95,0.12,106.51,39.00,3.11
2025-10-17T19:12:16.393566,0.18,0.95,-0.00,111.76,-8.00,1.77
2025-10-17T19:12:16.393566,0.18,0.99,0.06,45.04,11.66,5.74
2025-10-17T19:12:16.395568,0.19,0.99,-0.01,-10.56,38.45,-10.86
2025-10-17T19:12:16.453364,0.16,0.95,-0.05,-111.57,30.52,-11.35
2025-10-17T19:12:16.453364,0.18,1.04,-0.23,-189.82,29.85,-12.02
2025-10-17T19:12:16.512972,0.11,0.99,-0.11,-111.88,-19.84,-13.00
2025-10-17T19:12:16.513976,0.05,0.97,0.14,-136.60,-35.46,-0.67
2025-10-17T19:12:16.514976,0.15,0.89,0.17,-202.51,14.47,-7.75
2025-10-17T19:12:16.573562,0.10,0.84,0.44,-220.09,-17.27,-2.81
2025-10-17T19:12:16.573562,0.13,0.89,0.65,-193.12,-23.80,2.26
2025-10-17T19:12:16.633295,0.11,0.79,0.63,-146.06,13.06,6.84
2025-10-17T19:12:16.633295,0.12,0.72,0.53,-151.12,14.47,8.30
2025-10-17T19:12:16.635294,0.12,0.67,0.67,-176.03,-15.14,10.56
2025-10-17T19:12:16.692965,0.16,0.63,0.91,-157.96,10.93,17.76
2025-10-17T19:12:16.693969,0.16,0.56,0.87,-159.91,27.59,17.76
2025-10-17T19:12:16.752963,0.18,0.47,0.73,-146.91,2.81,17.64
2025-10-17T19:12:16.752963,0.12,0.40,0.93,-154.91,-20.39,18.80
2025-10-17T19:12:16.755400,0.18,0.43,1.09,-173.95,29.11,15.93
2025-10-17T19:12:16.812961,0.18,0.32,0.94,-172.42,40.10,5.55
2025-10-17T19:12:16.813965,0.14,0.18,0.91,-164.49,17.82,0.73
2025-10-17T19:12:16.873279,0.14,0.13,1.04,-154.11,8.24,4.09
2025-10-17T19:12:16.874281,0.15,0.14,1.07,-156.49,21.12,-0.73
2025-10-17T19:12:16.933232,0.13,0.03,0.96,-153.99,23.32,-0.98
2025-10-17T19:12:16.934234,0.11,-0.05,0.88,-154.30,-4.15,13.12
2025-10-17T19:12:16.935234,0.09,-0.13,1.11,-151.37,-12.94,14.65
2025-10-17T19:12:16.992958,0.14,-0.18,1.04,-152.34,27.34,10.31
2025-10-17T19:12:16.993962,0.13,-0.30,0.91,-153.99,23.80,6.53
2025-10-17T19:12:17.112954,0.12,-0.41,0.83,-173.22,2.08,16.54
2025-10-17T19:12:17.112954,0.06,-0.44,1.04,-178.04,1.34,21.00
2025-10-17T19:12:17.173132,0.13,-0.41,0.91,-182.07,32.65,5.98
2025-10-17T19:12:17.174133,0.07,-0.56,0.74,-175.11,2.75,0.43
2025-10-17T19:12:17.175132,0.10,-0.67,0.59,-191.59,1.71,15.44
2025-10-17T19:12:17.176132,0.04,-0.76,0.82,-212.04,-32.17,16.30
2025-10-17T19:12:17.178379,0.11,-0.67,0.92,-213.75,-17.27,15.26
2025-10-17T19:12:17.178379,0.13,-0.81,0.64,-246.95,53.77,5.43
2025-10-17T19:12:17.233099,0.04,-1.11,0.28,-289.25,31.37,14.71
2025-10-17T19:12:17.234100,-0.01,-1.09,0.22,-253.97,18.74,44.01
2025-10-17T19:12:17.293115,0.08,-0.88,0.28,-185.30,-17.27,37.54
2025-10-17T19:12:17.294114,0.04,-0.88,0.27,-95.89,-14.77,13.55
2025-10-17T19:12:17.295115,0.05,-1.00,0.11,-55.60,1.10,4.21
2025-10-17T19:12:17.353230,-0.05,-1.10,0.18,1.46,23.80,9.89
2025-10-17T19:12:17.354231,-0.02,-1.01,0.12,118.35,35.64,-3.66
2025-10-17T19:12:17.412946,0.10,-0.98,0.32,281.07,21.18,-33.57
2025-10-17T19:12:17.413950,0.11,-1.09,0.31,351.14,18.92,-71.23
2025-10-17T19:12:17.414951,-0.03,-1.39,0.35,332.09,15.75,-39.18
2025-10-17T19:12:17.472713,0.03,-1.28,0.43,166.38,28.20,9.28
2025-10-17T19:12:17.473714,0.02,-0.83,0.66,116.46,31.49,19.78
2025-10-17T19:12:17.533375,0.05,-0.63,0.59,142.52,20.45,-5.74
2025-10-17T19:12:17.533375,-0.01,-0.64,0.70,179.99,-11.66,-10.25
2025-10-17T19:12:17.592756,0.02,-0.57,0.94,197.63,-3.48,-11.17
2025-10-17T19:12:17.593759,0.06,-0.54,0.90,196.90,23.74,-10.62
2025-10-17T19:12:17.594759,0.03,-0.43,0.87,202.51,-16.91,-8.61
2025-10-17T19:12:17.652940,0.01,-0.34,1.14,231.63,-23.68,-8.24
2025-10-17T19:12:17.653945,0.05,-0.31,1.04,225.46,18.86,-7.39
2025-10-17T19:12:17.712937,0.06,-0.17,0.87,204.35,9.22,-8.67
2025-10-17T19:12:17.713942,0.02,-0.09,0.95,190.61,-16.54,-9.16
2025-10-17T19:12:17.714944,0.02,0.05,1.03,171.75,1.95,-6.23
2025-10-17T19:12:17.773367,0.03,0.16,1.00,184.27,9.83,-8.79
2025-10-17T19:12:17.773367,0.05,0.22,0.88,201.05,-0.31,-5.37
2025-10-17T19:12:17.832934,0.03,0.32,0.90,200.32,-16.78,-5.86
2025-10-17T19:12:17.833939,0.01,0.33,0.99,189.39,-21.06,-5.13
2025-10-17T19:12:17.834939,0.04,0.43,0.89,158.02,21.30,-1.34
2025-10-17T19:12:17.893365,0.07,0.54,0.79,158.63,10.25,4.15
2025-10-17T19:12:17.893365,0.03,0.57,0.84,168.88,-16.78,5.98
2025-10-17T19:12:17.952931,0.06,0.63,0.76,120.42,15.32,-6.29
2025-10-17T19:12:17.954252,0.07,0.72,0.69,109.92,18.62,-15.75
2025-10-17T19:12:17.955258,0.03,0.77,0.63,174.93,0.06,-9.70
2025-10-17T19:12:18.013289,0.03,0.76,0.68,151.00,-4.70,-10.31
2025-10-17T19:12:18.013289,0.04,0.79,0.54,114.56,37.23,-23.19
2025-10-17T19:12:18.072928,0.04,0.88,0.57,142.52,31.37,-35.10
2025-10-17T19:12:18.131941,0.01,0.85,0.53,171.94,48.52,-41.14
2025-10-17T19:12:18.132944,0.06,0.98,0.26,153.99,67.81,-22.40
2025-10-17T19:12:18.134946,-0.07,0.82,0.11,119.14,54.38,3.05
2025-10-17T19:12:18.134946,-0.12,0.90,0.24,53.47,16.85,-8.61
2025-10-17T19:12:18.193281,-0.09,0.99,0.22,63.05,49.56,-4.33
2025-10-17T19:12:18.193281,-0.08,1.02,0.00,42.79,44.31,5.49
2025-10-17T19:12:18.252924,-0.13,1.01,-0.10,-39.92,13.24,-2.08
2025-10-17T19:12:18.252924,-0.16,1.02,0.01,-61.46,6.47,-5.68
2025-10-17T19:12:18.255304,-0.17,0.98,0.01,-92.41,0.79,1.89
2025-10-17T19:12:18.313404,-0.10,0.99,-0.03,-120.67,-10.38,-3.30
2025-10-17T19:12:18.313404,-0.06,0.99,0.15,-215.33,5.98,-20.20
2025-10-17T19:12:18.373450,-0.13,0.89,0.26,-255.31,-5.62,-38.02
2025-10-17T19:12:18.373450,-0.15,0.77,0.47,-250.24,-35.34,-29.54
2025-10-17T19:12:18.375458,-0.03,0.80,0.93,-259.58,-4.33,-40.28
2025-10-17T19:12:18.432922,-0.10,0.69,0.87,-239.07,41.99,-49.56
2025-10-17T19:12:18.433926,-0.18,0.46,0.81,-142.94,-10.56,-34.12
2025-10-17T19:12:18.492919,-0.17,0.39,0.96,-122.19,-28.32,-20.94
2025-10-17T19:12:18.493923,-0.12,0.43,0.96,-140.62,7.20,-25.57
2025-10-17T19:12:18.494924,-0.20,0.33,0.81,-138.73,5.74,-21.48
2025-10-17T19:12:18.552826,-0.22,0.17,0.70,-124.51,-27.10,-13.31
2025-10-17T19:12:18.553827,-0.18,0.22,1.25,-155.82,-50.96,-0.98
2025-10-17T19:12:18.612915,-0.08,0.20,1.12,-201.97,61.04,-18.92
2025-10-17T19:12:18.613920,-0.21,0.02,0.91,-189.76,20.14,-14.47
2025-10-17T19:12:18.614920,-0.21,-0.07,0.91,-158.87,-30.76,-8.06
2025-10-17T19:12:18.673132,-0.17,-0.08,1.21,-151.06,-34.91,-6.65
2025-10-17T19:12:18.674132,-0.15,-0.18,0.97,-209.23,41.38,-10.93
2025-10-17T19:12:18.733352,-0.18,-0.28,0.74,-276.61,-9.28,-12.33
2025-10-17T19:12:18.733352,-0.22,-0.57,0.97,-292.60,-57.80,-11.29
2025-10-17T19:12:18.735357,-0.06,-0.51,0.96,-272.09,16.42,10.56
2025-10-17T19:12:18.792910,-0.14,-0.64,0.70,-266.78,31.43,2.93
2025-10-17T19:12:18.793915,-0.12,-0.89,0.34,-271.36,-55.24,-2.75
2025-10-17T19:12:18.852910,-0.25,-0.94,1.07,-276.06,-106.38,26.67
2025-10-17T19:12:18.853917,-0.06,-0.77,0.80,-281.07,67.20,28.87
2025-10-17T19:12:18.912907,-0.15,-0.88,0.28,-211.49,40.71,-0.85
2025-10-17T19:12:18.913912,-0.12,-0.99,0.08,-202.15,6.23,3.05
2025-10-17T19:12:18.914912,-0.16,-1.17,0.27,-236.69,-22.09,11.17
2025-10-17T19:12:18.973397,-0.12,-0.96,0.41,-219.54,2.01,15.87
2025-10-17T19:12:18.973397,-0.11,-0.98,-0.10,-117.49,70.31,9.95
2025-10-17T19:12:19.032903,-0.18,-0.95,-0.27,-57.19,22.40,6.10
2025-10-17T19:12:19.033907,-0.16,-0.90,-0.11,43.82,-26.86,-2.08
2025-10-17T19:12:19.034908,-0.12,-0.99,0.16,216.98,-13.31,-16.85
2025-10-17T19:12:19.093200,-0.11,-1.03,0.14,237.85,13.06,-40.95
2025-10-17T19:12:19.094200,-0.11,-1.15,0.08,292.36,-9.22,-36.93
2025-10-17T19:12:19.152901,-0.13,-1.11,0.36,227.17,-24.23,-31.68
2025-10-17T19:12:19.153905,-0.13,-1.00,0.48,206.30,-1.53,-24.41
2025-10-17T19:12:19.154906,-0.07,-0.86,0.51,232.36,-15.20,-25.45
2025-10-17T19:12:19.213154,-0.09,-0.88,0.54,238.83,-38.21,-24.84
2025-10-17T19:12:19.214152,-0.07,-0.78,0.79,216.61,-49.68,-15.56
2025-10-17T19:12:19.272898,-0.01,-0.66,0.83,177.00,-18.37,-14.40
2025-10-17T19:12:19.272898,-0.02,-0.59,0.84,201.35,-24.84,-13.06
2025-10-17T19:12:19.275241,-0.06,-0.60,0.96,230.47,-45.04,6.41
2025-10-17T19:12:19.333202,0.05,-0.45,1.01,227.60,-26.98,25.45
2025-10-17T19:12:19.334204,0.10,-0.25,0.93,181.03,-5.19,-15.44
2025-10-17T19:12:19.392894,0.03,-0.28,0.91,214.66,-25.82,-5.55
2025-10-17T19:12:19.393897,0.04,-0.16,1.09,210.57,-26.25,-0.24
2025-10-17T19:12:19.453432,0.14,-0.01,0.97,204.10,14.71,-9.95
2025-10-17T19:12:19.453432,0.06,-0.02,0.89,157.90,2.87,-13.18
2025-10-17T19:12:19.455438,0.00,0.14,0.85,78.67,-14.65,10.31
2025-10-17T19:12:19.512890,-0.02,0.26,0.87,18.92,-26.49,19.96
2025-10-17T19:12:19.513893,0.06,0.61,0.86,20.81,-75.26,28.44
2025-10-17T19:12:19.572888,0.19,0.47,0.65,39.79,-169.92,10.07
2025-10-17T19:12:19.573892,0.13,0.05,0.94,22.83,-223.02,3.54
2025-10-17T19:12:19.574893,0.13,0.28,1.70,1.04,-189.76,67.69
2025-10-17T19:12:19.632887,0.38,0.29,1.35,-111.02,-36.80,84.53
2025-10-17T19:12:19.633891,0.34,0.20,0.68,-91.06,-62.74,62.07
2025-10-17T19:12:19.692885,0.47,0.11,0.44,10.74,-181.82,15.38
2025-10-17T19:12:19.693889,0.52,0.01,0.94,53.96,-260.31,4.15
2025-10-17T19:12:19.694892,0.62,0.03,1.10,5.62,-164.98,27.34
2025-10-17T19:12:19.753431,0.62,-0.04,0.84,-35.22,-109.13,20.87
2025-10-17T19:12:19.753431,0.66,-0.04,0.37,17.52,-152.04,6.53
2025-10-17T19:12:19.813240,0.77,0.05,0.33,20.26,-190.73,10.62
2025-10-17T19:12:19.814241,0.85,0.13,0.57,62.26,-206.42,17.70
2025-10-17T19:12:19.815242,0.90,0.07,0.40,58.96,-181.82,22.09
2025-10-17T19:12:19.873365,0.94,-0.00,0.27,39.55,-175.05,32.10
2025-10-17T19:12:19.873365,0.94,-0.09,0.09,-35.40,-170.35,30.76
2025-10-17T19:12:19.932879,1.02,0.06,0.19,-44.07,-161.07,1.46
2025-10-17T19:12:19.934183,1.06,0.16,0.20,-28.81,-140.38,2.50
2025-10-17T19:12:19.935189,1.08,0.09,0.33,2.87,-106.20,-3.05
2025-10-17T19:12:19.993170,1.08,0.07,0.25,-11.96,-54.32,-16.11
2025-10-17T19:12:19.994172,1.00,0.06,0.02,-11.72,9.22,-24.11
2025-10-17T19:12:20.053255,1.00,0.11,-0.04,-9.46,43.03,-36.25
2025-10-17T19:12:20.053255,0.95,0.12,0.00,38.21,70.13,-16.54
2025-10-17T19:12:20.112874,0.95,0.05,0.01,62.99,137.63,18.25
2025-10-17T19:12:20.113878,0.86,-0.06,0.03,38.82,167.11,22.52
2025-10-17T19:12:20.114878,0.74,-0.20,0.07,25.70,166.32,-52.43
2025-10-17T19:12:20.172872,1.10,0.45,0.27,26.06,130.62,-55.05
2025-10-17T19:12:20.173876,0.84,0.12,0.13,31.37,168.15,81.30
2025-10-17T19:12:20.233303,0.82,-0.08,0.37,6.23,161.19,39.37
2025-10-17T19:12:20.233303,0.72,0.02,0.78,1.40,139.71,-8.36
2025-10-17T19:12:20.235304,1.19,0.73,0.84,-55.54,166.32,-67.32
2025-10-17T19:12:20.293301,0.91,0.17,0.33,0.00,255.80,52.55
2025-10-17T19:12:20.293301,0.66,-0.40,0.66,26.18,225.71,42.42
2025-10-17T19:12:20.353300,0.33,-0.38,0.73,-2.99,173.46,-31.68
2025-10-17T19:12:20.353300,0.62,0.51,1.48,4.70,105.04,-151.55
2025-10-17T19:12:20.355299,0.62,0.09,0.65,-8.06,270.26,59.39
2025-10-17T19:12:20.413309,0.46,0.06,0.87,-8.91,268.13,37.54
2025-10-17T19:12:20.413309,0.04,-0.12,1.10,66.96,146.85,-1.89
2025-10-17T19:12:20.592243,0.04,0.00,1.30,28.08,121.22,-78.67
2025-10-17T19:12:20.593244,0.46,0.23,0.82,-32.65,255.86,-11.78
2025-10-17T19:12:20.594244,-0.08,0.02,1.23,25.33,215.03,3.60
2025-10-17T19:12:20.596243,-0.09,-0.06,1.01,43.52,198.18,9.03
2025-10-17T19:12:20.597305,-0.42,-0.10,1.02,-27.83,250.92,-137.15
2025-10-17T19:12:20.598305,0.08,0.67,0.91,-46.14,212.28,-162.72
2025-10-17T19:12:20.599306,-0.48,0.11,0.78,-20.08,208.07,-29.36
2025-10-17T19:12:20.600305,-0.62,0.17,1.09,3.72,164.31,-9.83
2025-10-17T19:12:20.653293,-0.56,-0.27,0.64,12.02,238.59,-38.21
2025-10-17T19:12:20.653293,-0.55,0.21,0.44,-43.09,199.04,-81.24
2025-10-17T19:12:20.712580,-0.78,0.07,0.54,-67.63,118.10,-22.46
2025-10-17T19:12:20.713581,-0.82,0.06,0.60,8.42,135.38,2.99
2025-10-17T19:12:20.772934,-0.91,-0.11,0.28,5.25,135.31,-0.37
2025-10-17T19:12:20.773934,-0.97,-0.07,0.21,-50.96,34.73,-12.63
2025-10-17T19:12:20.774935,-0.95,0.15,0.64,-3.78,-20.87,-8.24
2025-10-17T19:12:20.832525,-0.93,0.13,0.59,33.75,-20.39,-5.31
2025-10-17T19:12:20.833524,-1.06,-0.16,0.33,-12.08,-63.23,9.40
2025-10-17T19:12:20.892617,-0.96,-0.06,0.65,-38.64,-99.73,18.37
2025-10-17T19:12:20.893617,-0.74,0.22,0.94,59.94,-108.34,7.20
2025-10-17T19:12:20.894616,-0.88,-0.13,0.63,53.04,-106.63,17.70
2025-10-17T19:12:20.953237,-0.90,-0.15,0.53,28.02,-129.94,48.03
2025-10-17T19:12:20.953237,-0.59,0.31,1.12,65.67,-148.74,38.88
2025-10-17T19:12:21.012849,-0.54,0.18,0.94,68.85,-91.86,15.26
2025-10-17T19:12:21.013850,-0.68,0.01,0.54,19.78,-99.18,24.54
2025-10-17T19:12:21.014850,-0.55,0.12,0.71,5.31,-158.75,37.35
2025-10-17T19:12:21.073384,-0.32,0.30,1.06,21.24,-127.26,16.78
2025-10-17T19:12:21.073384,-0.39,0.19,0.76,19.65,-104.13,15.26
2025-10-17T19:12:21.132847,-0.35,0.19,0.60,8.67,-166.44,26.92
2025-10-17T19:12:21.133852,-0.25,0.05,1.14,-12.51,-215.88,28.99
2025-10-17T19:12:21.134852,-0.11,0.14,1.27,-9.46,-120.30,31.13
2025-10-17T19:12:21.193238,-0.05,0.21,0.93,-10.68,-114.69,22.95
2025-10-17T19:12:21.193238,0.00,0.11,0.76,-11.90,-193.54,19.65
2025-10-17T19:12:21.252844,0.04,0.15,1.38,24.41,-218.14,21.91
2025-10-17T19:12:21.253848,0.18,0.11,1.18,7.08,-92.53,11.23
2025-10-17T19:12:21.254849,0.19,0.04,0.82,-2.01,-122.86,12.70
2025-10-17T19:12:21.313217,0.22,-0.00,0.67,3.11,-191.10,27.65
2025-10-17T19:12:21.313217,0.37,0.08,1.15,0.12,-171.75,18.92
2025-10-17T19:12:21.373273,0.36,0.07,1.08,-8.48,-128.85,13.98
2025-10-17T19:12:21.373273,0.48,0.01,0.56,-26.98,-153.99,7.69
2025-10-17T19:12:21.432548,0.52,0.07,0.71,-10.74,-192.38,12.08
2025-10-17T19:12:21.433550,0.59,0.20,1.08,10.80,-145.63,4.70
2025-10-17T19:12:21.434551,0.67,0.13,0.55,-2.93,-114.56,-3.91
2025-10-17T19:12:21.492721,0.71,-0.07,0.22,-1.77,-165.28,2.50
2025-10-17T19:12:21.493722,0.63,0.09,0.85,30.94,-189.09,9.09
2025-10-17T19:12:21.553317,0.79,0.22,0.90,-1.34,-110.96,-6.84
2025-10-17T19:12:21.553317,0.88,0.05,0.42,-4.70,-66.71,-12.70
2025-10-17T19:12:21.555312,0.97,0.05,0.39,22.77,-88.99,-11.29
2025-10-17T19:12:21.613271,0.95,0.09,0.65,30.76,-55.11,-22.64
2025-10-17T19:12:21.613271,1.08,0.26,0.84,42.66,25.02,-30.33
2025-10-17T19:12:21.672831,1.14,0.12,0.50,10.31,73.06,-1.46
2025-10-17T19:12:21.673835,0.96,0.05,0.29,-8.36,88.20,24.48
2025-10-17T19:12:21.674837,0.83,0.13,0.49,-3.60,64.21,23.07
2025-10-17T19:12:21.732886,0.82,0.21,0.56,-24.60,98.08,12.21
2025-10-17T19:12:21.792693,0.91,0.20,0.34,-19.71,77.82,34.55
2025-10-17T19:12:21.792693,0.78,0.14,0.35,-5.49,62.93,13.85
2025-10-17T19:12:21.794694,0.64,0.16,0.60,7.45,36.01,-14.89
2025-10-17T19:12:21.796200,0.65,0.15,0.79,9.03,61.89,-19.71
2025-10-17T19:12:21.853210,0.74,0.11,0.73,-17.70,120.06,-15.26
2025-10-17T19:12:21.854209,0.69,0.07,0.58,-16.11,110.84,9.22
2025-10-17T19:12:21.913307,0.59,0.06,0.72,-1.59,105.22,2.50
2025-10-17T19:12:21.913307,0.47,0.01,0.96,-3.30,142.52,-56.88
2025-10-17T19:12:21.915307,0.71,0.32,0.90,-50.84,163.70,-38.15
2025-10-17T19:12:21.973257,0.39,0.07,0.77,-7.57,136.35,10.93
2025-10-17T19:12:21.973257,0.43,0.05,0.93,-7.08,128.54,-18.62
2025-10-17T19:12:22.032824,0.36,0.19,1.08,-22.22,174.93,-65.31
2025-10-17T19:12:22.033828,0.25,0.10,0.75,-44.13,157.84,-7.45
2025-10-17T19:12:22.093253,0.10,-0.02,0.75,-13.79,94.24,36.01
2025-10-17T19:12:22.093253,0.16,0.18,1.25,-8.54,109.44,16.72
2025-10-17T19:12:22.095253,0.12,0.14,1.13,-55.11,163.33,-23.99
2025-10-17T19:12:22.152822,-0.05,-0.02,0.98,-48.10,147.89,-36.25
2025-10-17T19:12:22.153829,-0.01,0.10,1.26,-26.31,139.77,-30.82
2025-10-17T19:12:22.213251,-0.14,0.07,1.25,-29.85,178.53,-15.69
2025-10-17T19:12:22.213251,-0.26,-0.19,0.83,-47.85,211.36,-40.10
2025-10-17T19:12:22.215251,-0.23,-0.04,0.81,-52.37,188.90,-61.58
2025-10-17T19:12:22.273325,-0.38,0.03,1.01,-66.59,162.48,-32.96
2025-10-17T19:12:22.273325,-0.48,-0.19,0.89,-35.89,199.04,-15.75
2025-10-17T19:12:22.333382,-0.64,-0.34,0.89,-35.10,198.06,-2.01
2025-10-17T19:12:22.334384,-0.52,-0.13,0.73,-79.04,229.92,-43.46
2025-10-17T19:12:22.335384,-0.62,-0.01,0.68,-99.12,215.64,-33.94
2025-10-17T19:12:22.392789,-0.86,-0.18,0.53,-60.00,195.37,10.38
2025-10-17T19:12:22.393790,-0.90,-0.26,0.36,-49.62,190.73,33.20
2025-10-17T19:12:22.513160,-0.90,-0.24,0.35,-24.11,147.64,13.24
2025-10-17T19:12:22.514162,-0.95,-0.18,0.29,-19.65,109.01,-13.61
2025-10-17T19:12:22.515163,-0.97,-0.17,0.34,-27.04,109.13,-21.00
2025-10-17T19:12:22.516665,-0.98,-0.19,0.20,-26.12,111.27,-26.00
2025-10-17T19:12:22.517669,-1.06,-0.26,0.11,10.01,51.33,-16.54
2025-10-17T19:12:22.573448,-1.07,-0.33,0.01,-6.47,33.20,0.06
2025-10-17T19:12:22.573448,-1.03,-0.27,-0.02,-23.62,0.43,-3.36
2025-10-17T19:12:22.575455,-1.03,-0.27,0.13,6.16,-41.63,8.61
2025-10-17T19:12:22.632808,-1.06,-0.36,0.13,24.23,-55.48,24.35
2025-10-17T19:12:22.633812,-1.02,-0.35,0.09,11.35,-71.96,34.79
2025-10-17T19:12:22.693318,-0.91,-0.19,0.23,9.40,-97.96,30.88
2025-10-17T19:12:22.693318,-0.92,-0.17,0.44,54.38,-121.89,26.61
2025-10-17T19:12:22.752805,-0.93,-0.23,0.37,31.68,-92.96,30.46
2025-10-17T19:12:22.753810,-0.86,-0.10,0.35,-13.12,-102.11,13.61
2025-10-17T19:12:22.754809,-0.83,-0.07,0.56,3.17,-126.16,10.56
2025-10-17T19:12:22.812803,-0.85,-0.16,0.68,53.10,-103.76,7.87
2025-10-17T19:12:22.813807,-0.81,-0.18,0.49,15.69,-82.70,27.95
2025-10-17T19:12:22.872801,-0.75,-0.08,0.50,-7.45,-96.62,27.40
2025-10-17T19:12:22.873807,-0.69,0.04,0.88,24.66,-114.20,8.61
2025-10-17T19:12:22.874807,-0.66,-0.04,0.79,54.32,-76.84,-8.18
2025-10-17T19:12:22.932800,-0.78,-0.21,0.66,35.95,-76.84,11.41
2025-10-17T19:12:22.933803,-0.69,-0.14,0.60,2.26,-89.78,12.21
2025-10-17T19:12:23.053229,-0.61,0.03,0.87,22.58,-94.12,14.47
2025-10-17T19:12:23.053229,-0.63,-0.08,0.82,37.35,-71.41,1.53
2025-10-17T19:12:23.055229,-0.62,-0.16,0.73,25.82,-82.82,14.83
2025-10-17T19:12:23.056736,-0.56,-0.08,0.90,7.51,-93.93,24.66
2025-10-17T19:12:23.057743,-0.46,0.05,0.97,14.89,-78.92,8.54
2025-10-17T19:12:23.112794,-0.44,0.01,0.86,21.67,-66.04,6.35
2025-10-17T19:12:23.113798,-0.44,-0.10,0.87,16.42,-98.02,16.91
2025-10-17T19:12:23.114799,-0.43,-0.03,1.10,17.76,-96.44,21.91
2025-10-17T19:12:23.172792,-0.32,0.07,1.03,18.25,-40.83,9.77
2025-10-17T19:12:23.173802,-0.31,0.03,0.92,14.65,-43.15,4.94
2025-10-17T19:12:23.232791,-0.30,0.03,0.91,21.61,-72.02,12.45
2025-10-17T19:12:23.233795,-0.30,0.10,1.03,26.37,-57.74,5.13
2025-10-17T19:12:23.292598,-0.28,0.11,0.97,17.27,-34.12,-0.67
2025-10-17T19:12:23.293601,-0.22,0.14,0.84,12.51,-54.44,-1.59
2025-10-17T19:12:23.294607,-0.22,0.11,0.88,18.01,-77.70,-4.33
2025-10-17T19:12:23.352693,-0.17,0.15,0.99,24.05,-70.13,-5.25
2025-10-17T19:12:23.353694,-0.14,0.13,0.92,6.35,-49.01,-7.08
2025-10-17T19:12:23.413342,-0.09,0.07,0.73,-0.55,-74.65,-5.55
2025-10-17T19:12:23.413342,-0.07,0.02,0.87,10.93,-129.52,2.50
2025-10-17T19:12:23.415342,-0.02,0.03,1.05,6.53,-132.75,7.20
2025-10-17T19:12:23.473107,0.09,0.10,1.01,-13.43,-85.02,-5.00
2025-10-17T19:12:23.474108,0.16,0.11,0.86,-36.74,-94.36,-6.23
2025-10-17T19:12:23.532594,0.23,0.08,0.68,-1.83,-165.77,12.82
2025-10-17T19:12:23.533597,0.33,0.12,1.23,36.93,-217.35,2.99
2025-10-17T19:12:23.534596,0.51,0.11,1.06,17.40,-159.18,-8.61
2025-10-17T19:12:23.593262,0.55,0.01,0.81,23.44,-180.24,-8.91
2025-10-17T19:12:23.593262,0.71,-0.00,0.91,41.75,-222.72,-9.70
2025-10-17T19:12:23.652526,0.69,0.11,1.16,19.29,-190.06,-8.30
2025-10-17T19:12:23.653529,0.73,0.13,0.97,-0.67,-104.37,-13.73
2025-10-17T19:12:23.654529,0.78,0.07,0.64,2.20,-124.63,-9.52
2025-10-17T19:12:23.712777,0.68,0.05,1.00,20.69,-155.15,5.13
2025-10-17T19:12:23.713781,0.75,0.14,1.07,6.04,-91.37,15.32
2025-10-17T19:12:23.773299,0.77,0.10,0.84,-2.50,-9.28,14.40
2025-10-17T19:12:23.773299,0.87,0.14,0.68,2.62,-7.51,4.52
2025-10-17T19:12:23.775306,0.78,0.11,0.71,14.53,1.53,0.43
2025-10-17T19:12:23.833322,0.75,0.14,0.86,26.43,43.88,-9.03
2025-10-17T19:12:23.833322,0.83,0.21,0.87,10.56,86.61,-13.37
2025-10-17T19:12:23.893112,0.84,0.17,0.62,-12.94,89.54,-0.31
2025-10-17T19:12:23.894113,0.75,0.21,0.81,-19.65,110.96,-3.11
2025-10-17T19:12:23.895112,0.63,0.17,1.01,-5.92,144.41,-14.53
2025-10-17T19:12:23.952771,0.77,0.22,0.98,-7.08,210.39,15.20
2025-10-17T19:12:23.953775,0.74,0.12,0.60,-19.29,225.83,24.11
2025-10-17T19:12:24.012583,0.43,0.18,1.03,-39.61,158.87,-6.77
2025-10-17T19:12:24.073108,0.36,0.12,1.11,-56.64,155.64,-31.98
2025-10-17T19:12:24.074110,0.62,0.33,0.92,-70.31,218.44,-29.17
2025-10-17T19:12:24.075108,0.36,0.05,0.70,-65.98,195.07,14.16
2025-10-17T19:12:24.076615,0.01,0.04,1.04,-45.53,137.02,13.73
2025-10-17T19:12:24.132769,-0.01,-0.12,1.00,-41.14,179.14,14.89
2025-10-17T19:12:24.133774,-0.06,-0.13,0.92,-53.77,197.39,-10.86
2025-10-17T19:12:24.192578,-0.13,-0.05,0.91,-50.66,153.20,-2.50
2025-10-17T19:12:24.193578,-0.30,-0.13,0.91,-43.64,137.33,21.67
2025-10-17T19:12:24.195085,-0.36,-0.11,0.96,-37.48,164.06,34.85
2025-10-17T19:12:24.253082,-0.39,-0.21,0.82,-53.16,169.92,30.21
2025-10-17T19:12:24.254082,-0.47,-0.18,0.73,-60.79,148.44,17.52
2025-10-17T19:12:24.313259,-0.48,-0.17,0.78,-72.81,117.98,5.55
2025-10-17T19:12:24.314264,-0.51,-0.14,0.72,-95.09,123.78,27.95
2025-10-17T19:12:24.315264,-0.59,-0.10,0.80,-69.89,93.38,23.86
2025-10-17T19:12:24.373084,-0.67,-0.24,0.77,-68.05,107.85,7.39
2025-10-17T19:12:24.374083,-0.73,-0.23,0.70,-67.93,106.69,17.33
2025-10-17T19:12:24.433081,-0.69,-0.17,0.55,-70.92,84.90,24.11
2025-10-17T19:12:24.434084,-0.69,-0.14,0.53,-76.54,75.26,13.79
2025-10-17T19:12:24.435085,-0.73,-0.16,0.63,-38.39,53.59,-5.68
2025-10-17T19:12:24.492569,-0.76,-0.21,0.41,-7.87,45.41,-3.05
2025-10-17T19:12:24.493570,-0.74,-0.18,0.28,-9.16,6.59,-8.79
2025-10-17T19:12:24.552568,-0.72,-0.16,0.33,7.87,-62.81,-19.90
2025-10-17T19:12:24.554568,-0.69,-0.10,0.51,27.53,-90.39,-35.89
2025-10-17T19:12:24.554568,-0.69,-0.13,0.54,67.14,-95.95,-30.88
2025-10-17T19:12:24.613295,-0.58,-0.19,0.39,55.60,-128.05,-38.33
2025-10-17T19:12:24.614296,-0.69,-0.35,0.71,70.62,-191.53,-23.86
2025-10-17T19:12:24.673232,-0.57,-0.12,1.08,66.22,-151.67,-18.19
2025-10-17T19:12:24.674233,-0.47,-0.12,0.92,50.60,-52.86,-41.69
2025-10-17T19:12:24.733075,-0.47,-0.19,0.76,74.22,-65.19,-30.88
2025-10-17T19:12:24.734076,-0.49,-0.22,0.84,104.19,-135.44,-23.62
2025-10-17T19:12:24.735074,-0.50,-0.17,1.11,94.54,-134.03,-25.57
2025-10-17T19:12:24.792612,-0.32,-0.03,0.83,57.37,-69.21,-34.55
2025-10-17T19:12:24.793613,-0.31,-0.05,0.71,58.11,-100.71,-27.10
2025-10-17T19:12:24.853070,-0.26,-0.05,0.84,121.34,-188.42,-15.75
2025-10-17T19:12:24.854068,-0.39,0.03,1.35,155.15,-215.64,-5.07
2025-10-17T19:12:24.855070,-0.09,0.03,1.13,55.54,-68.79,-22.03
2025-10-17T19:12:24.913067,-0.06,0.02,0.99,26.37,-25.02,-12.08
2025-10-17T19:12:24.914068,-0.04,0.06,0.98,56.46,-73.61,-3.66
2025-10-17T19:12:24.973066,0.01,0.09,1.18,45.78,-90.70,-6.59
2025-10-17T19:12:24.974065,0.07,0.00,1.23,25.27,-42.79,-10.31
2025-10-17T19:12:24.975067,0.09,-0.00,1.21,-17.03,8.79,-6.23
2025-10-17T19:12:25.033063,0.11,-0.00,1.08,-35.89,18.92,-2.38
2025-10-17T19:12:25.034062,0.06,0.05,1.09,-23.32,12.76,-0.79
2025-10-17T19:12:25.093066,0.05,0.07,1.02,-11.05,12.76,-0.12
2025-10-17T19:12:25.094066,0.05,0.06,0.99,-15.01,14.53,-2.75
2025-10-17T19:12:25.095066,0.01,0.02,0.98,-22.28,14.16,-1.40
2025-10-17T19:12:25.153323,0.01,0.02,0.98,-25.15,18.19,2.44
2025-10-17T19:12:25.154323,0.01,0.06,0.98,-37.11,17.64,-0.79
2025-10-17T19:12:25.212552,0.01,0.07,1.01,-15.56,5.86,3.91
2025-10-17T19:12:25.213551,-0.01,0.07,1.04,-6.59,-3.97,2.62
2025-10-17T19:12:25.214551,-0.00,0.03,1.04,2.38,-0.73,1.04
2025-10-17T19:12:25.272549,-0.00,0.04,1.04,-4.21,0.73,-2.62
2025-10-17T19:12:25.274550,-0.01,0.02,1.01,-10.62,0.92,-4.76
2025-10-17T19:12:25.333343,-0.02,0.01,1.02,-3.60,-3.30,1.34
2025-10-17T19:12:25.334345,-0.01,0.02,1.05,-2.93,-7.32,0.79
2025-10-17T19:12:25.335344,-0.01,0.02,1.04,-2.87,-0.67,1.40
2025-10-17T19:12:25.392549,-0.00,0.02,1.00,-5.43,1.83,-1.83
2025-10-17T19:12:25.393553,-0.03,0.01,1.00,0.55,-6.96,-0.24
2025-10-17T19:12:25.453301,-0.03,0.01,1.02,0.92,-8.79,0.61
2025-10-17T19:12:25.453301,-0.01,0.00,1.04,-3.17,-0.67,2.14
2025-10-17T19:12:25.513337,0.01,0.00,1.03,-7.26,1.28,-15.08
2025-10-17T19:12:25.514336,0.01,-0.00,1.04,-5.62,-0.61,0.43
2025-10-17T19:12:25.515336,0.01,-0.01,1.05,-1.77,0.00,-0.85
2025-10-17T19:12:25.573216,-0.00,-0.03,1.06,1.40,0.67,-0.61
2025-10-17T19:12:25.574215,0.01,-0.02,1.04,-3.54,5.62,0.92
2025-10-17T19:12:25.633297,0.02,-0.01,1.01,-5.55,8.12,1.77
2025-10-17T19:12:25.634299,0.00,0.01,1.03,-6.65,0.98,-0.06
2025-10-17T19:12:25.635297,-0.00,0.01,1.05,-5.49,2.62,-1.59
2025-10-17T19:12:25.693434,-0.01,-0.01,1.03,-3.97,7.32,-1.28
2025-10-17T19:12:25.694939,0.00,-0.01,0.99,-4.82,4.03,0.73
2025-10-17T19:12:25.753415,0.00,-0.02,1.00,-2.99,0.18,0.73
2025-10-17T19:12:25.754415,-0.01,-0.02,1.02,-3.54,-1.53,-1.22
2025-10-17T19:12:25.755415,-0.02,-0.04,1.01,-2.32,0.43,-0.24
2025-10-17T19:12:25.813305,-0.00,-0.03,1.01,-2.14,-1.16,2.75
2025-10-17T19:12:25.814308,0.01,-0.01,1.01,-4.88,-0.98,-0.31
2025-10-17T19:12:25.873117,-0.01,-0.03,1.02,-4.52,-1.95,-1.34
2025-10-17T19:12:25.874118,-0.00,-0.03,1.04,-1.10,-1.16,-0.24
2025-10-17T19:12:25.875118,-0.00,-0.04,1.01,-2.69,1.59,1.28
2025-10-17T19:12:25.932531,0.02,-0.02,0.99,-6.84,-2.38,0.98
2025-10-17T19:12:25.934532,-0.01,-0.02,1.01,-6.65,-4.52,0.12
2025-10-17T19:12:25.992799,-0.01,-0.02,1.06,-0.06,-2.75,0.43
2025-10-17T19:12:25.993802,0.01,-0.03,1.03,-0.49,4.33,0.31
2025-10-17T19:12:25.994799,0.00,-0.03,1.01,-0.49,0.85,-0.06
2025-10-17T19:12:26.053037,-0.01,-0.03,1.02,-4.70,-5.43,0.06
2025-10-17T19:12:26.054038,-0.01,-0.04,1.03,-4.03,-1.34,-3.05
2025-10-17T19:12:26.113100,-0.00,-0.03,1.01,-3.48,4.76,-0.49
2025-10-17T19:12:26.114099,0.00,-0.04,1.01,-4.58,4.09,-0.98
2025-10-17T19:12:26.115099,-0.02,-0.04,1.04,-1.10,-1.83,-0.92
2025-10-17T19:12:26.172521,-0.02,-0.03,1.06,-0.06,-2.81,-2.20
2025-10-17T19:12:26.173527,-0.03,-0.04,1.05,-1.65,5.19,-4.09
2025-10-17T19:12:26.232523,-0.01,-0.05,1.01,-0.98,4.76,-2.38
2025-10-17T19:12:26.234531,-0.02,-0.06,1.01,-0.43,-0.67,-0.61
2025-10-17T19:12:26.234531,-0.02,-0.06,1.03,-2.14,-2.69,-1.04
2025-10-17T19:12:26.292645,-0.03,-0.06,1.05,-1.89,0.18,-0.73
2025-10-17T19:12:26.293645,-0.02,-0.06,1.02,0.98,2.75,0.31
2025-10-17T19:12:26.353142,-0.02,-0.06,1.01,-0.24,0.49,0.67
2025-10-17T19:12:26.354140,-0.01,-0.05,1.00,-3.60,-1.10,-0.06
2025-10-17T19:12:26.355140,-0.02,-0.06,1.03,-2.62,-2.93,0.67
2025-10-17T19:12:26.413216,-0.01,-0.06,1.02,-3.23,2.44,0.55
2025-10-17T19:12:26.415215,-0.01,-0.05,0.99,-2.14,2.32,0.61
2025-10-17T19:12:26.532703,-0.01,-0.04,1.00,-0.92,-1.71,0.92
2025-10-17T19:12:26.533708,-0.00,-0.05,1.02,-3.60,-2.14,-1.10
2025-10-17T19:12:26.534708,-0.01,-0.08,1.03,-1.65,-1.83,15.44
2025-10-17T19:12:26.536213,0.00,-0.07,1.02,-3.11,0.00,2.75
2025-10-17T19:12:26.538220,0.01,-0.04,1.01,-3.85,-0.85,0.85
2025-10-17T19:12:26.592701,-0.00,-0.05,1.02,-0.85,-2.87,0.24
2025-10-17T19:12:26.593706,-0.01,-0.09,1.02,-8.18,1.53,-0.85
2025-10-17T19:12:26.653352,-0.00,-0.08,1.02,-6.77,3.48,3.66
2025-10-17T19:12:26.654357,0.01,-0.05,1.00,-1.65,-0.12,3.42
2025-10-17T19:12:26.655353,0.00,-0.05,1.01,3.36,-4.46,2.32
2025-10-17T19:12:26.712697,0.01,-0.05,1.03,0.92,-5.00,1.10
2025-10-17T19:12:26.713926,0.01,-0.07,1.04,-3.78,0.92,-0.61
2025-10-17T19:12:26.772695,0.01,-0.08,1.03,-0.49,1.34,0.67
2025-10-17T19:12:26.774076,0.01,-0.06,1.02,0.37,-0.67,0.43
2025-10-17T19:12:26.775084,0.01,-0.05,1.03,1.22,-1.89,-0.67
2025-10-17T19:12:26.833138,0.00,-0.07,1.03,5.19,-2.01,0.73
2025-10-17T19:12:26.834144,0.01,-0.07,1.04,3.11,-0.79,1.59
2025-10-17T19:12:26.892648,0.01,-0.06,1.02,1.59,3.23,0.85
2025-10-17T19:12:26.894242,0.01,-0.03,1.02,3.23,-1.71,-0.31
2025-10-17T19:12:26.895249,-0.01,-0.06,1.04,3.11,-2.38,0.31
